m1_rpm,m2_rpm,m3_rpm,m4_rpm,temp_m1,temp_m2,temp_m3,temp_m4,volt_m1,volt_m2,volt_m3,volt_m4,x_camera,y_camera,Altitude,linear_acceleration_x,linear_acceleration_y,linear_acceleration_z,angular_velocity_x,angular_velocity_y,angular_velocity_z,compass,roll,pitch,yaw,x_gps,y_gps,z_gps
0.0,0.0,0.0,0.0,50.0,50.0,50.0,50.0,11.630000114440918,11.619999885559082,11.710000038146973,11.520000457763672,-0.0009479227010160685,-0.004190898034721613,,-0.0392266,-0.15690639999999886,9.2574776,0.00029407814145088196,-6.895371188875299e-05,-0.0008786758407950401,330.73,-0.007474054582417011,0.0045977747067809105,2.081489086151123,-0.5666576623916626,3.9927241802215576,-0.6562680602073669
0.0,0.0,0.0,0.0,50.0,50.0,51.0,51.0,11.699999809265137,11.619999885559082,11.460000038146973,11.710000038146973,0.00027297946508042514,-0.0012316384818404913,,-0.0392266,-0.15690639999999886,9.2574776,0.00029407814145088196,-6.895371188875299e-05,-0.0008786758407950401,330.72,-0.007474054582417011,0.0045977747067809105,2.081489086151123,-0.5666576623916626,3.9927241802215576,-0.6562680602073669
0.0,0.0,0.0,0.0,50.0,50.0,51.0,51.0,11.699999809265137,11.619999885559082,11.460000038146973,11.710000038146973,-0.003930358216166496,-0.004249088000506163,,-0.0392266,-0.15690639999999886,9.2574776,0.00029407814145088196,-6.895371188875299e-05,-0.0008786758407950401,330.72,-0.007404203526675701,0.0047814082354307175,2.081836223602295,-0.5621993541717529,3.9927217960357666,-0.6501325964927673
0.0,0.0,0.0,0.0,50.0,50.0,51.0,51.0,11.699999809265137,11.619999885559082,11.460000038146973,11.710000038146973,-0.003930358216166496,-0.004249088000506163,,-0.0392266,-0.15690639999999886,9.2574776,0.00029407814145088196,-6.895371188875299e-05,-0.0008786758407950401,330.72,-0.007404203526675701,0.0047814082354307175,2.081836223602295,-0.5621993541717529,3.9927217960357666,-0.6501325964927673
0.0,0.0,0.0,0.0,50.0,50.0,51.0,51.0,11.699999809265137,11.619999885559082,11.460000038146973,11.710000038146973,-0.0008829770376905799,0.001869181520305574,,-0.0392266,-0.15690639999999886,9.2574776,0.00029407814145088196,-6.895371188875299e-05,-0.0008786758407950401,330.71,-0.007404203526675701,0.0047814082354307175,2.081836223602295,-0.5589131712913513,3.9918386936187744,-0.6436528563499451
0.0,0.0,0.0,0.0,50.0,50.0,51.0,51.0,11.699999809265137,11.619999885559082,11.460000038146973,11.710000038146973,0.0010222597047686577,0.003089897334575653,,-0.0392266,-0.15690639999999886,9.2574776,0.00029407814145088196,-6.895371188875299e-05,-0.0008786758407950401,330.71,-0.007404203526675701,0.0047814082354307175,2.081836223602295,-0.5555019974708557,3.990529775619507,-0.6382873058319092
0.0,0.0,0.0,0.0,50.0,50.0,51.0,51.0,11.699999809265137,11.619999885559082,11.460000038146973,11.710000038146973,0.0013401411706581712,0.0032325549982488155,,-0.0392266,-0.15690639999999886,9.2574776,0.00029407814145088196,-6.895371188875299e-05,-0.0008786758407950401,330.71,-0.007404203526675701,0.0047814082354307175,2.081836223602295,-0.5555019974708557,3.990529775619507,-0.6382873058319092
0.0,0.0,0.0,0.0,50.0,50.0,51.0,51.0,11.699999809265137,11.619999885559082,11.460000038146973,11.710000038146973,0.0030931320507079363,0.004018111620098352,,-0.0392266,-0.15690639999999886,9.2574776,0.00029407814145088196,-6.895371188875299e-05,-0.0008786758407950401,330.7,-0.007404203526675701,0.0047814082354307175,2.081836223602295,-0.5524307489395142,3.988823890686035,-0.6352081894874573
0.0,0.0,0.0,0.0,50.0,50.0,51.0,51.0,11.699999809265137,11.619999885559082,11.460000038146973,11.710000038146973,-0.0002517911489121616,0.006436703726649284,,-0.0588399,-0.13729309999999886,9.28689755,5.508598405867815e-05,-0.0006029006908647718,-0.0016371081583201885,330.7,-0.007404203526675701,0.0047814082354307175,2.081836223602295,-0.5492329001426697,3.9865822792053223,-0.6297008395195007
0.0,0.0,0.0,0.0,50.0,50.0,50.0,51.0,11.710000038146973,11.050000190734863,11.609999656677246,11.460000038146973,-6.083155676606111e-05,0.0005714912549592555,,-0.0588399,-0.13729309999999886,9.28689755,5.508598405867815e-05,-0.0006029006908647718,-0.0016371081583201885,330.7,-0.007404203526675701,0.0047814082354307175,2.081836223602295,-0.5492329001426697,3.9865822792053223,-0.6297008395195007
0.0,0.0,0.0,0.0,50.0,50.0,50.0,51.0,11.710000038146973,11.050000190734863,11.609999656677246,11.460000038146973,-0.0012076850980520248,0.002666702726855874,,-0.0588399,-0.13729309999999886,9.28689755,5.508598405867815e-05,-0.0006029006908647718,-0.0016371081583201885,330.7,-0.007503272034227848,0.0044764308258891106,2.082214117050171,-0.5444841980934143,3.9896106719970703,-0.6296395063400269
0.0,0.0,0.0,0.0,50.0,50.0,50.0,51.0,11.710000038146973,11.050000190734863,11.609999656677246,11.460000038146973,-0.002366304164752364,-0.002734714187681675,,-0.0588399,-0.13729309999999886,9.28689755,5.508598405867815e-05,-0.0006029006908647718,-0.0016371081583201885,330.7,-0.007503272034227848,0.0044764308258891106,2.082214117050171,-0.5411263704299927,3.990936040878296,-0.6267663240432739
0.0,0.0,0.0,0.0,50.0,50.0,50.0,51.0,11.710000038146973,11.050000190734863,11.609999656677246,11.460000038146973,-0.001412438228726387,-0.0024581346660852432,,-0.0588399,-0.13729309999999886,9.28689755,5.508598405867815e-05,-0.0006029006908647718,-0.0016371081583201885,330.69,-0.007503272034227848,0.0044764308258891106,2.082214117050171,-0.5411263704299927,3.990936040878296,-0.6267663240432739
0.0,0.0,0.0,0.0,50.0,50.0,50.0,51.0,11.710000038146973,11.050000190734863,11.609999656677246,11.460000038146973,-0.0045014964416623116,0.004386536777019501,,-0.0588399,-0.13729309999999886,9.28689755,5.508598405867815e-05,-0.0006029006908647718,-0.0016371081583201885,330.69,-0.007503272034227848,0.0044764308258891106,2.082214117050171,-0.5372580885887146,3.9928693771362305,-0.6259936690330505
0.0,0.0,0.0,0.0,50.0,50.0,50.0,51.0,11.710000038146973,11.050000190734863,11.609999656677246,11.460000038146973,-0.003008465515449643,0.0006483899778686464,,-0.0588399,-0.13729309999999886,9.28689755,5.508598405867815e-05,-0.0006029006908647718,-0.0016371081583201885,330.68,-0.007503272034227848,0.0044764308258891106,2.082214117050171,-0.5352474451065063,3.9955010414123535,-0.6307302713394165
0.0,0.0,0.0,0.0,50.0,50.0,50.0,51.0,11.710000038146973,11.050000190734863,11.609999656677246,11.460000038146973,-0.0030454229563474655,-0.0017390763387084007,,-0.0588399,-0.13729309999999886,9.28689755,5.508598405867815e-05,-0.0006029006908647718,-0.0016371081583201885,330.68,-0.007503272034227848,0.0044764308258891106,2.082214117050171,-0.5327315330505371,3.996980667114258,-0.6318407654762268
0.0,0.0,0.0,0.0,50.0,50.0,50.0,51.0,11.710000038146973,11.050000190734863,11.609999656677246,11.460000038146973,-0.0006000681896694005,0.0025097450707107782,,-0.04903325,-0.14709974999999886,9.28689755,0.0007249282207340002,0.00020381744252517803,-0.0013956446200609207,330.68,-0.007503272034227848,0.0044764308258891106,2.082214117050171,-0.5327315330505371,3.996980667114258,-0.6318407654762268
0.0,0.0,0.0,0.0,50.0,51.0,50.0,50.0,11.619999885559082,11.670000076293945,11.729999542236328,11.579999923706055,-0.002415904076769948,0.004365681670606136,,-0.04903325,-0.14709974999999886,9.28689755,0.0007249282207340002,0.00020381744252517803,-0.0013956446200609207,330.68,-0.007503272034227848,0.0044764308258891106,2.082214117050171,-0.5327315330505371,3.996980667114258,-0.6318407654762268
0.0,0.0,0.0,0.0,50.0,51.0,50.0,50.0,11.619999885559082,11.670000076293945,11.729999542236328,11.579999923706055,-0.002702603582292795,0.0007540000369772315,,-0.04903325,-0.14709974999999886,9.28689755,0.0007249282207340002,0.00020381744252517803,-0.0013956446200609207,330.68,-0.007444686256349087,0.0048311203718185425,2.082570791244507,-0.5268017053604126,3.9983468055725098,-0.6402270197868347
0.0,0.0,0.0,0.0,50.0,51.0,50.0,50.0,11.619999885559082,11.670000076293945,11.729999542236328,11.579999923706055,-3.486958667053841e-05,-0.00441967137157917,,-0.04903325,-0.14709974999999886,9.28689755,0.0007249282207340002,0.00020381744252517803,-0.0013956446200609207,330.68,-0.007444686256349087,0.0048311203718185425,2.082570791244507,-0.5238661170005798,3.998283863067627,-0.6413825154304504
0.0,0.0,0.0,0.0,50.0,51.0,50.0,50.0,11.619999885559082,11.670000076293945,11.729999542236328,11.579999923706055,0.00127941754180938,-0.0007714814273640513,,-0.04903325,-0.14709974999999886,9.28689755,0.0007249282207340002,0.00020381744252517803,-0.0013956446200609207,330.67,-0.007444686256349087,0.0048311203718185425,2.082570791244507,-0.5204060673713684,3.9971625804901123,-0.6446350812911987
0.0,0.0,0.0,0.0,50.0,51.0,50.0,50.0,11.619999885559082,11.670000076293945,11.729999542236328,11.579999923706055,0.007761691231280565,-0.007760514970868826,,-0.04903325,-0.14709974999999886,9.28689755,0.0007249282207340002,0.00020381744252517803,-0.0013956446200609207,330.67,-0.007444686256349087,0.0048311203718185425,2.082570791244507,-0.5204060673713684,3.9971625804901123,-0.6446350812911987
0.0,0.0,0.0,0.0,50.0,51.0,50.0,50.0,11.619999885559082,11.670000076293945,11.729999542236328,11.579999923706055,0.004618144128471613,-0.008218764327466488,,-0.04903325,-0.14709974999999886,9.28689755,0.0007249282207340002,0.00020381744252517803,-0.0013956446200609207,330.66,-0.007444686256349087,0.0048311203718185425,2.082570791244507,-0.5189064741134644,3.9945456981658936,-0.6522223353385925
0.0,0.0,0.0,0.0,50.0,51.0,50.0,50.0,11.619999885559082,11.670000076293945,11.729999542236328,11.579999923706055,0.0016186205903068185,-0.005293169990181923,,-0.04903325,-0.15690639999999886,9.26728425,0.000339932506904006,-0.0008427341817878187,-0.00027048587799072255,330.66,-0.007444686256349087,0.0048311203718185425,2.082570791244507,-0.5168132185935974,3.9916505813598633,-0.6543028950691223
0.0,0.0,0.0,0.0,50.0,50.0,50.0,51.0,11.609999656677246,11.710000038146973,11.40999984741211,11.460000038146973,0.0041060494258999825,0.0023414797615259886,,-0.04903325,-0.15690639999999886,9.26728425,0.000339932506904006,-0.0008427341817878187,-0.00027048587799072255,330.66,-0.007444686256349087,0.0048311203718185425,2.082570791244507,-0.5168132185935974,3.9916505813598633,-0.6543028950691223
0.0,0.0,0.0,0.0,50.0,50.0,50.0,51.0,11.609999656677246,11.710000038146973,11.40999984741211,11.460000038146973,0.0041060494258999825,0.0023414797615259886,,-0.04903325,-0.15690639999999886,9.26728425,0.000339932506904006,-0.0008427341817878187,-0.00027048587799072255,330.66,-0.0076804449781775475,0.004554692190140486,2.0830042362213135,-0.5141109228134155,3.9882047176361084,-0.6573662757873535
0.0,0.0,0.0,0.0,50.0,50.0,50.0,51.0,11.609999656677246,11.710000038146973,11.40999984741211,11.460000038146973,0.0005546592292375863,-0.003217952558770776,,-0.04903325,-0.15690639999999886,9.26728425,0.000339932506904006,-0.0008427341817878187,-0.00027048587799072255,330.65,-0.0076804449781775475,0.004554692190140486,2.0830042362213135,-0.5141109228134155,3.9882047176361084,-0.6573662757873535
0.0,0.0,0.0,0.0,50.0,50.0,50.0,51.0,11.609999656677246,11.710000038146973,11.40999984741211,11.460000038146973,-8.464751590508968e-05,-0.0022419581655412912,,-0.04903325,-0.15690639999999886,9.26728425,0.000339932506904006,-0.0008427341817878187,-0.00027048587799072255,330.65,-0.0076804449781775475,0.004554692190140486,2.0830042362213135,-0.510752260684967,3.9840245246887207,-0.6569285988807678
0.0,0.0,0.0,0.0,50.0,50.0,50.0,51.0,11.609999656677246,11.710000038146973,11.40999984741211,11.460000038146973,0.0012377838138490915,-0.0007014793227426708,,-0.04903325,-0.15690639999999886,9.26728425,0.000339932506904006,-0.0008427341817878187,-0.00027048587799072255,330.64,-0.0076804449781775475,0.004554692190140486,2.0830042362213135,-0.5085514187812805,3.9811511039733887,-0.6568910479545593
0.0,0.0,0.0,0.0,50.0,50.0,50.0,51.0,11.609999656677246,11.710000038146973,11.40999984741211,11.460000038146973,-6.379862315952778e-05,5.6672983191674575e-05,,-0.04903325,-0.15690639999999886,9.26728425,0.000339932506904006,-0.0008427341817878187,-0.00027048587799072255,330.64,-0.0076804449781775475,0.004554692190140486,2.0830042362213135,-0.5070580840110779,3.9785029888153076,-0.6611229181289673
0.0,0.0,0.0,0.0,50.0,50.0,50.0,51.0,11.609999656677246,11.710000038146973,11.40999984741211,11.460000038146973,0.0011052013142034411,0.0009368640603497624,,-0.04903325,-0.15690639999999886,9.26728425,0.000339932506904006,-0.0008427341817878187,-0.00027048587799072255,330.64,-0.0076804449781775475,0.004554692190140486,2.0830042362213135,-0.5070580840110779,3.9785029888153076,-0.6611229181289673
0.0,0.0,0.0,0.0,50.0,50.0,50.0,51.0,11.609999656677246,11.710000038146973,11.40999984741211,11.460000038146973,-0.00035443849628791213,0.0016045315423980355,,-0.0392266,-0.14709974999999886,9.26728425,-0.0008749732514843345,-2.7011235943064354e-05,-0.002142847515642643,330.64,-0.0076804449781775475,0.004554692190140486,2.0830042362213135,-0.5049902200698853,3.9753453731536865,-0.6615753769874573
0.0,0.0,0.0,0.0,50.0,50.0,50.0,50.0,11.710000038146973,11.710000038146973,11.710000038146973,11.779999732971191,-0.0002213153784396127,0.00010541657684370875,,-0.0392266,-0.14709974999999886,9.26728425,-0.0008749732514843345,-2.7011235943064354e-05,-0.002142847515642643,330.64,-0.0076804449781775475,0.004554692190140486,2.0830042362213135,-0.5049902200698853,3.9753453731536865,-0.6615753769874573
0.0,0.0,0.0,0.0,50.0,50.0,50.0,50.0,11.710000038146973,11.710000038146973,11.710000038146973,11.779999732971191,-0.00030046957544982433,-0.005102788098156452,,-0.0392266,-0.14709974999999886,9.26728425,-0.0008749732514843345,-2.7011235943064354e-05,-0.002142847515642643,330.64,-0.0076804449781775475,0.004554692190140486,2.0830042362213135,-0.5049902200698853,3.9753453731536865,-0.6615753769874573
0.0,0.0,0.0,0.0,50.0,50.0,50.0,50.0,11.710000038146973,11.710000038146973,11.710000038146973,11.779999732971191,0.001070330967195332,0.0007228730246424675,,-0.0392266,-0.14709974999999886,9.26728425,-0.0008749732514843345,-2.7011235943064354e-05,-0.002142847515642643,330.63,-0.007832418195903301,0.0045244754292070866,2.083334445953369,-0.5040216445922852,3.9773001670837402,-0.6642863154411316
0.0,0.0,0.0,0.0,50.0,50.0,50.0,50.0,11.710000038146973,11.710000038146973,11.710000038146973,11.779999732971191,-0.001306892023421824,-0.005188060458749533,,-0.0392266,-0.14709974999999886,9.26728425,-0.0008749732514843345,-2.7011235943064354e-05,-0.002142847515642643,330.63,-0.007832418195903301,0.0045244754292070866,2.083334445953369,-0.5033241510391235,3.9780306816101074,-0.6636781096458435
0.0,0.0,0.0,0.0,50.0,50.0,50.0,50.0,11.710000038146973,11.710000038146973,11.710000038146973,11.779999732971191,0.0004570283635985106,0.0010198632953688502,,-0.0392266,-0.14709974999999886,9.26728425,-0.0008749732514843345,-2.7011235943064354e-05,-0.002142847515642643,330.63,-0.007832418195903301,0.0045244754292070866,2.083334445953369,-0.5012058615684509,3.9804165363311768,-0.6652055978775024
0.0,0.0,0.0,0.0,50.0,50.0,50.0,50.0,11.710000038146973,11.710000038146973,11.710000038146973,11.779999732971191,0.00022025612997822464,0.0045757112093269825,,-0.0392266,-0.14709974999999886,9.26728425,-0.0008749732514843345,-2.7011235943064354e-05,-0.002142847515642643,330.63,-0.007832418195903301,0.0045244754292070866,2.083334445953369,-0.49690237641334534,3.9861695766448975,-0.6678319573402405
0.0,0.0,0.0,0.0,50.0,50.0,50.0,50.0,11.710000038146973,11.710000038146973,11.710000038146973,11.779999732971191,-0.002908878494054079,0.0034105668310076,,-0.0392266,-0.14709974999999886,9.26728425,-0.0008749732514843345,-2.7011235943064354e-05,-0.002142847515642643,330.62,-0.007832418195903301,0.0045244754292070866,2.083334445953369,-0.49690237641334534,3.9861695766448975,-0.6678319573402405
0.0,0.0,0.0,0.0,50.0,50.0,50.0,50.0,11.710000038146973,11.710000038146973,11.710000038146973,11.779999732971191,-0.002687162486836314,0.0006989394314587116,,-0.04903325,-0.16671304999999886,9.26728425,0.0006469268118962646,8.3810751675628e-05,-0.0010301717557013035,330.62,-0.007832418195903301,0.0045244754292070866,2.083334445953369,-0.49280911684036255,3.989253520965576,-0.6672086715698242
0.0,0.0,0.0,0.0,50.0,50.0,50.0,50.0,11.25,11.710000038146973,11.630000114440918,11.550000190734863,-0.0031420669984072447,-0.0001137220679083839,,-0.04903325,-0.16671304999999886,9.26728425,0.0006469268118962646,8.3810751675628e-05,-0.0010301717557013035,330.62,-0.007832418195903301,0.0045244754292070866,2.083334445953369,-0.49280911684036255,3.989253520965576,-0.6672086715698242
0.0,0.0,0.0,0.0,50.0,50.0,50.0,50.0,11.25,11.710000038146973,11.630000114440918,11.550000190734863,-0.0031420669984072447,-0.0001137220679083839,,-0.04903325,-0.16671304999999886,9.26728425,0.0006469268118962646,8.3810751675628e-05,-0.0010301717557013035,330.61,-0.0074842264875769615,0.005082759540528059,2.0836730003356934,-0.4896780848503113,3.9980180263519287,-0.6694691777229309
0.0,0.0,0.0,0.0,50.0,50.0,50.0,50.0,11.25,11.710000038146973,11.630000114440918,11.550000190734863,-0.001469838316552341,-0.00038338504964485765,,-0.04903325,-0.16671304999999886,9.26728425,0.0006469268118962646,8.3810751675628e-05,-0.0010301717557013035,330.61,-0.0074842264875769615,0.005082759540528059,2.0836730003356934,-0.4878520965576172,4.002620697021484,-0.6699236631393433
0.0,0.0,0.0,0.0,50.0,50.0,50.0,50.0,11.25,11.710000038146973,11.630000114440918,11.550000190734863,-0.0010180330136790872,0.0012554085114970803,,-0.04903325,-0.16671304999999886,9.26728425,0.0006469268118962646,8.3810751675628e-05,-0.0010301717557013035,330.61,-0.0074842264875769615,0.005082759540528059,2.0836730003356934,-0.4846605956554413,4.0069684982299805,-0.6702673435211182
0.0,0.0,0.0,0.0,50.0,50.0,50.0,50.0,11.25,11.710000038146973,11.630000114440918,11.550000190734863,-0.0026725640054792166,0.0038313509430736303,,-0.04903325,-0.16671304999999886,9.26728425,0.0006469268118962646,8.3810751675628e-05,-0.0010301717557013035,330.61,-0.0074842264875769615,0.005082759540528059,2.0836730003356934,-0.4846605956554413,4.0069684982299805,-0.6702673435211182
0.0,0.0,0.0,0.0,50.0,50.0,50.0,50.0,11.25,11.710000038146973,11.630000114440918,11.550000190734863,0.00045393980690278113,-0.00019284339214209467,,-0.04903325,-0.16671304999999886,9.26728425,0.0006469268118962646,8.3810751675628e-05,-0.0010301717557013035,330.6,-0.0074842264875769615,0.005082759540528059,2.0836730003356934,-0.4802781343460083,4.0112786293029785,-0.6733285188674927
0.0,0.0,0.0,0.0,50.0,50.0,50.0,50.0,11.25,11.710000038146973,11.630000114440918,11.550000190734863,-0.0014075773069635034,-0.0035749576054513454,,-0.0588399,-0.16671304999999886,9.26728425,3.951718099415302e-05,-0.00038633026997558783,-0.0008597327396273613,330.6,-0.0074842264875769615,0.005082759540528059,2.0836730003356934,-0.47611021995544434,4.013542652130127,-0.6739238500595093
0.0,0.0,0.0,0.0,50.0,50.0,50.0,50.0,11.25,11.710000038146973,11.630000114440918,11.550000190734863,2.191903695347719e-05,-0.006784939207136631,,-0.0588399,-0.16671304999999886,9.26728425,3.951718099415302e-05,-0.00038633026997558783,-0.0008597327396273613,330.6,-0.0074842264875769615,0.005082759540528059,2.0836730003356934,-0.47611021995544434,4.013542652130127,-0.6739238500595093
0.0,0.0,0.0,0.0,51.0,50.0,50.0,51.0,11.670000076293945,11.710000038146973,11.65999984741211,11.630000114440918,-0.0015070660738274455,-0.0010878067696467042,,-0.0588399,-0.16671304999999886,9.26728425,3.951718099415302e-05,-0.00038633026997558783,-0.0008597327396273613,330.6,-0.0074842264875769615,0.005082759540528059,2.0836730003356934,-0.47611021995544434,4.013542652130127,-0.6739238500595093
0.0,0.0,0.0,0.0,51.0,50.0,50.0,51.0,11.670000076293945,11.710000038146973,11.65999984741211,11.630000114440918,-0.00027320324443280697,-0.0033895375672727823,,-0.0588399,-0.16671304999999886,9.26728425,3.951718099415302e-05,-0.00038633026997558783,-0.0008597327396273613,330.59,-0.007365942932665348,0.005308252293616533,2.0840206146240234,-0.47292429208755493,4.022244453430176,-0.6764580011367798
0.0,0.0,0.0,0.0,51.0,50.0,50.0,51.0,11.670000076293945,11.710000038146973,11.65999984741211,11.630000114440918,0.0006170024280436337,-0.001012576394714415,,-0.0588399,-0.16671304999999886,9.26728425,3.951718099415302e-05,-0.00038633026997558783,-0.0008597327396273613,330.59,-0.007365942932665348,0.005308252293616533,2.0840206146240234,-0.47151419520378113,4.026300430297852,-0.6782745122909546
0.0,0.0,0.0,0.0,51.0,50.0,50.0,51.0,11.670000076293945,11.710000038146973,11.65999984741211,11.630000114440918,-0.0002450325118843466,-0.0038476709742099047,,-0.0588399,-0.16671304999999886,9.26728425,3.951718099415302e-05,-0.00038633026997558783,-0.0008597327396273613,330.59,-0.007365942932665348,0.005308252293616533,2.0840206146240234,-0.47151419520378113,4.026300430297852,-0.6782745122909546
0.0,0.0,0.0,0.0,51.0,50.0,50.0,51.0,11.670000076293945,11.710000038146973,11.65999984741211,11.630000114440918,-0.001985684037208557,-0.0051080952398478985,,-0.0588399,-0.16671304999999886,9.26728425,3.951718099415302e-05,-0.00038633026997558783,-0.0008597327396273613,330.58,-0.007365942932665348,0.005308252293616533,2.0840206146240234,-0.46996015310287476,4.028141975402832,-0.6816858053207397
0.0,0.0,0.0,0.0,51.0,50.0,50.0,51.0,11.670000076293945,11.710000038146973,11.65999984741211,11.630000114440918,0.0018549009691923857,-0.0025104142259806395,,-0.0588399,-0.16671304999999886,9.26728425,3.951718099415302e-05,-0.00038633026997558783,-0.0008597327396273613,330.58,-0.007365942932665348,0.005308252293616533,2.0840206146240234,-0.4695144295692444,4.026717662811279,-0.686269223690033
0.0,0.0,0.0,0.0,51.0,50.0,50.0,51.0,11.670000076293945,11.710000038146973,11.65999984741211,11.630000114440918,-0.0014468829613178968,-0.000914102653041482,,-0.0588399,-0.16671304999999886,9.26728425,3.951718099415302e-05,-0.00038633026997558783,-0.0008597327396273613,330.58,-0.007365942932665348,0.005308252293616533,2.0840206146240234,-0.468934565782547,4.024819850921631,-0.6916327476501465
0.0,0.0,0.0,0.0,51.0,50.0,50.0,51.0,11.670000076293945,11.710000038146973,11.65999984741211,11.630000114440918,-0.0024580685421824455,-0.0011281778570264578,,-0.0392266,-0.14709974999999886,9.24767095,-0.00021973520051687956,-0.00040390089270658813,-0.0018438603729009628,330.58,-0.007365942932665348,0.005308252293616533,2.0840206146240234,-0.468934565782547,4.024819850921631,-0.6916327476501465
0.0,0.0,0.0,0.0,50.0,50.0,50.0,50.0,10.949999809265137,11.630000114440918,11.710000038146973,11.729999542236328,-0.0007351809763349593,-0.005943535827100277,,-0.0392266,-0.14709974999999886,9.24767095,-0.00021973520051687956,-0.00040390089270658813,-0.0018438603729009628,330.58,-0.007365942932665348,0.005308252293616533,2.0840206146240234,-0.468934565782547,4.024819850921631,-0.6916327476501465
0.0,0.0,0.0,0.0,50.0,50.0,50.0,50.0,10.949999809265137,11.630000114440918,11.710000038146973,11.729999542236328,-0.0018811180489137769,-0.0014051528414711356,,-0.0392266,-0.14709974999999886,9.24767095,-0.00021973520051687956,-0.00040390089270658813,-0.0018438603729009628,330.57,-0.007738023065030575,0.005313233472406864,2.084395170211792,-0.47142067551612854,4.025568008422852,-0.704738974571228
0.0,0.0,0.0,0.0,50.0,50.0,50.0,50.0,10.949999809265137,11.630000114440918,11.710000038146973,11.729999542236328,0.0010183498961851,0.00012626491661649197,,-0.0392266,-0.14709974999999886,9.24767095,-0.00021973520051687956,-0.00040390089270658813,-0.0018438603729009628,330.57,-0.007738023065030575,0.005313233472406864,2.084395170211792,-0.4726807475090027,4.025812149047852,-0.7115775346755981
0.0,0.0,0.0,0.0,50.0,50.0,50.0,50.0,10.949999809265137,11.630000114440918,11.710000038146973,11.729999542236328,0.0010504828533157706,0.002526498632505536,,-0.0392266,-0.14709974999999886,9.24767095,-0.00021973520051687956,-0.00040390089270658813,-0.0018438603729009628,330.56,-0.007738023065030575,0.005313233472406864,2.084395170211792,-0.47249382734298706,4.02654504776001,-0.7189648747444153
0.0,0.0,0.0,0.0,50.0,50.0,50.0,50.0,10.949999809265137,11.630000114440918,11.710000038146973,11.729999542236328,0.0006553981802426279,0.0010762434685602784,,-0.0392266,-0.14709974999999886,9.24767095,-0.00021973520051687956,-0.00040390089270658813,-0.0018438603729009628,330.56,-0.007738023065030575,0.005313233472406864,2.084395170211792,-0.4699878394603729,4.02896785736084,-0.7266421914100647
0.0,0.0,0.0,0.0,50.0,50.0,50.0,50.0,10.949999809265137,11.630000114440918,11.710000038146973,11.729999542236328,0.0007321809534914792,-0.0014276551082730293,,-0.0392266,-0.15690639999999886,9.2378643,0.0006855507381260395,-0.00031735352240502845,-0.0010933885350823402,330.56,-0.007738023065030575,0.005313233472406864,2.084395170211792,-0.4673451781272888,4.03003454208374,-0.7306652069091797
0.0,0.0,0.0,0.0,52.0,50.0,50.0,50.0,11.710000038146973,11.609999656677246,11.619999885559082,11.520000457763672,-0.0014269277453422546,-0.0013963396195322275,,-0.0392266,-0.15690639999999886,9.2378643,0.0006855507381260395,-0.00031735352240502845,-0.0010933885350823402,330.56,-0.007738023065030575,0.005313233472406864,2.084395170211792,-0.4673451781272888,4.03003454208374,-0.7306652069091797
0.0,0.0,0.0,0.0,52.0,50.0,50.0,50.0,11.710000038146973,11.609999656677246,11.619999885559082,11.520000457763672,-0.0014269277453422546,-0.0013963396195322275,,-0.0392266,-0.15690639999999886,9.2378643,0.0006855507381260395,-0.00031735352240502845,-0.0010933885350823402,330.56,-0.007738023065030575,0.005313233472406864,2.084395170211792,-0.4673451781272888,4.03003454208374,-0.7306652069091797
0.0,0.0,0.0,0.0,52.0,50.0,50.0,50.0,11.710000038146973,11.609999656677246,11.619999885559082,11.520000457763672,0.0004286131006665528,-0.00044137355871498585,,-0.0392266,-0.15690639999999886,9.2378643,0.0006855507381260395,-0.00031735352240502845,-0.0010933885350823402,330.56,-0.007785658352077007,0.005513126030564308,2.0847442150115967,-0.46759504079818726,4.034430503845215,-0.7305997014045715
0.0,0.0,0.0,0.0,52.0,50.0,50.0,50.0,11.710000038146973,11.609999656677246,11.619999885559082,11.520000457763672,-0.0019665714353322983,-0.005457516293972731,,-0.0392266,-0.15690639999999886,9.2378643,0.0006855507381260395,-0.00031735352240502845,-0.0010933885350823402,330.55,-0.007785658352077007,0.005513126030564308,2.0847442150115967,-0.4677993059158325,4.037643909454346,-0.7298179864883423
0.0,0.0,0.0,0.0,52.0,50.0,50.0,50.0,11.710000038146973,11.609999656677246,11.619999885559082,11.520000457763672,0.0016562589444220066,-0.004304859787225723,,-0.0392266,-0.15690639999999886,9.2378643,0.0006855507381260395,-0.00031735352240502845,-0.0010933885350823402,330.54,-0.007785658352077007,0.005513126030564308,2.0847442150115967,-0.4668109118938446,4.040708541870117,-0.7295178174972534
0.0,0.0,0.0,0.0,52.0,50.0,50.0,50.0,11.710000038146973,11.609999656677246,11.619999885559082,11.520000457763672,-0.0008838154608383775,-0.0016590249724686146,,-0.0392266,-0.15690639999999886,9.2378643,0.0006855507381260395,-0.00031735352240502845,-0.0010933885350823402,330.54,-0.007785658352077007,0.005513126030564308,2.0847442150115967,-0.4640383720397949,4.044755935668945,-0.7289230823516846
0.0,0.0,0.0,0.0,52.0,50.0,50.0,50.0,11.710000038146973,11.609999656677246,11.619999885559082,11.520000457763672,0.0020227942150086164,0.002176312729716301,,-0.0392266,-0.15690639999999886,9.2378643,0.0006855507381260395,-0.00031735352240502845,-0.0010933885350823402,330.54,-0.007785658352077007,0.005513126030564308,2.0847442150115967,-0.4640383720397949,4.044755935668945,-0.7289230823516846
0.0,0.0,0.0,0.0,52.0,50.0,50.0,50.0,11.710000038146973,11.609999656677246,11.619999885559082,11.520000457763672,-0.002868345705792308,-0.0019155879272148013,,-0.0588399,-0.15690639999999886,9.2770909,-0.00011894712224602699,4.132493631914249e-05,-0.0007145197596400976,330.54,-0.007785658352077007,0.005513126030564308,2.0847442150115967,-0.4613133370876312,4.047105312347412,-0.7276483774185181
0.0,0.0,0.0,0.0,50.0,50.0,50.0,50.0,11.699999809265137,11.390000343322754,11.670000076293945,11.619999885559082,0.0003636608016677201,-0.001908616628497839,,-0.0588399,-0.15690639999999886,9.2770909,-0.00011894712224602699,4.132493631914249e-05,-0.0007145197596400976,330.54,-0.007785658352077007,0.005513126030564308,2.0847442150115967,-0.4613133370876312,4.047105312347412,-0.7276483774185181
0.0,0.0,0.0,0.0,50.0,50.0,50.0,50.0,11.699999809265137,11.390000343322754,11.670000076293945,11.619999885559082,0.00023673457326367497,0.006646122317761183,,-0.0588399,-0.15690639999999886,9.2770909,-0.00011894712224602699,4.132493631914249e-05,-0.0007145197596400976,330.53,-0.007694547064602375,0.0057138800621032715,2.085111141204834,-0.4586403965950012,4.053416728973389,-0.727599561214447
0.0,0.0,0.0,0.0,50.0,50.0,50.0,50.0,11.699999809265137,11.390000343322754,11.670000076293945,11.619999885559082,-3.3671560117909394e-07,0.0026680813170969486,,-0.0588399,-0.15690639999999886,9.2770909,-0.00011894712224602699,4.132493631914249e-05,-0.0007145197596400976,330.53,-0.007694547064602375,0.0057138800621032715,2.085111141204834,-0.4586403965950012,4.053416728973389,-0.727599561214447
0.0,0.0,0.0,0.0,50.0,50.0,50.0,50.0,11.699999809265137,11.390000343322754,11.670000076293945,11.619999885559082,-0.00038270867662504315,0.0064452593214809895,,-0.0588399,-0.15690639999999886,9.2770909,-0.00011894712224602699,4.132493631914249e-05,-0.0007145197596400976,330.52,-0.007694547064602375,0.0057138800621032715,2.085111141204834,-0.4568287134170532,4.057169437408447,-0.726653516292572
0.0,0.0,0.0,0.0,50.0,50.0,50.0,50.0,11.699999809265137,11.390000343322754,11.670000076293945,11.619999885559082,-0.008393707685172558,-0.017620155587792397,,-0.0588399,-0.15690639999999886,9.2770909,-0.00011894712224602699,4.132493631914249e-05,-0.0007145197596400976,330.52,-0.007694547064602375,0.0057138800621032715,2.085111141204834,-0.4544617533683777,4.063311576843262,-0.7271378636360168
0.0,0.0,0.0,0.0,50.0,50.0,50.0,50.0,11.699999809265137,11.390000343322754,11.670000076293945,11.619999885559082,-0.002955234609544277,0.0004591121105477214,,-0.0588399,-0.15690639999999886,9.2770909,-0.00011894712224602699,4.132493631914249e-05,-0.0007145197596400976,330.52,-0.007694547064602375,0.0057138800621032715,2.085111141204834,-0.45195433497428894,4.074443340301514,-0.7286702394485474
0.0,0.0,0.0,0.0,50.0,50.0,50.0,50.0,11.699999809265137,11.390000343322754,11.670000076293945,11.619999885559082,-0.0010332561796531081,0.0018642748473212123,,-0.0588399,-0.15690639999999886,9.2770909,-0.00011894712224602699,4.132493631914249e-05,-0.0007145197596400976,330.52,-0.007694547064602375,0.0057138800621032715,2.085111141204834,-0.45195433497428894,4.074443340301514,-0.7286702394485474
0.0,0.0,0.0,0.0,50.0,50.0,50.0,50.0,11.699999809265137,11.390000343322754,11.670000076293945,11.619999885559082,8.660859748488292e-05,0.0003464886103756726,,-0.0392266,-0.13729309999999886,9.24767095,-0.00034151540603488684,-0.00023158459225669517,-0.0011695025023072958,330.52,-0.007694547064602375,0.0057138800621032715,2.085111141204834,-0.4493600130081177,4.082314491271973,-0.7286563515663147
0.0,0.0,0.0,0.0,50.0,50.0,50.0,51.0,11.5,11.579999923706055,11.729999542236328,11.710000038146973,-0.003568158019334078,0.0016413190169259906,,-0.0392266,-0.13729309999999886,9.24767095,-0.00034151540603488684,-0.00023158459225669517,-0.0011695025023072958,330.52,-0.007694547064602375,0.0057138800621032715,2.085111141204834,-0.4493600130081177,4.082314491271973,-0.7286563515663147
0.0,0.0,0.0,0.0,50.0,50.0,50.0,51.0,11.5,11.579999923706055,11.729999542236328,11.710000038146973,-0.004591235425323248,0.0024691903963685036,,-0.0392266,-0.13729309999999886,9.24767095,-0.00034151540603488684,-0.00023158459225669517,-0.0011695025023072958,330.51,-0.007694547064602375,0.0057138800621032715,2.085111141204834,-0.4493600130081177,4.082314491271973,-0.7286563515663147
0.0,0.0,0.0,0.0,50.0,50.0,50.0,51.0,11.5,11.579999923706055,11.729999542236328,11.710000038146973,-0.0018616365268826485,0.005144636612385511,,-0.0392266,-0.13729309999999886,9.24767095,-0.00034151540603488684,-0.00023158459225669517,-0.0011695025023072958,330.51,-0.007455549202859402,0.00629007164388895,2.0854761600494385,-0.44481509923934937,4.100238800048828,-0.7308111786842346
0.0,0.0,0.0,0.0,50.0,50.0,50.0,51.0,11.5,11.579999923706055,11.729999542236328,11.710000038146973,-0.0033482525032013655,-0.000985517748631537,,-0.0392266,-0.13729309999999886,9.24767095,-0.00034151540603488684,-0.00023158459225669517,-0.0011695025023072958,330.5,-0.007455549202859402,0.00629007164388895,2.0854761600494385,-0.44245705008506775,4.107084274291992,-0.7310386896133423
0.0,0.0,0.0,0.0,50.0,50.0,50.0,51.0,11.5,11.579999923706055,11.729999542236328,11.710000038146973,-0.0033482525032013655,-0.000985517748631537,,-0.0392266,-0.13729309999999886,9.24767095,-0.00034151540603488684,-0.00023158459225669517,-0.0011695025023072958,330.5,-0.007455549202859402,0.00629007164388895,2.0854761600494385,-0.4398682117462158,4.112666606903076,-0.7313055396080017
0.0,0.0,0.0,0.0,50.0,50.0,50.0,51.0,11.5,11.579999923706055,11.729999542236328,11.710000038146973,0.001347445067949593,-0.0017579776467755437,,-0.0392266,-0.13729309999999886,9.24767095,-0.00034151540603488684,-0.00023158459225669517,-0.0011695025023072958,330.5,-0.007455549202859402,0.00629007164388895,2.0854761600494385,-0.4398682117462158,4.112666606903076,-0.7313055396080017
0.0,0.0,0.0,0.0,50.0,50.0,50.0,51.0,11.5,11.579999923706055,11.729999542236328,11.710000038146973,0.0014957389794290066,-0.007436205167323351,,-0.0392266,-0.13729309999999886,9.24767095,-0.00034151540603488684,-0.00023158459225669517,-0.0011695025023072958,330.49,-0.007455549202859402,0.00629007164388895,2.0854761600494385,-0.43551045656204224,4.119973659515381,-0.7321757078170776
0.0,0.0,0.0,0.0,50.0,50.0,50.0,51.0,11.5,11.579999923706055,11.729999542236328,11.710000038146973,-0.001021118019707501,-0.0055426317267119884,,-0.0392266,-0.15690639999999886,9.218251,-0.0008209771476686001,-0.00019341724691912543,-0.0009815364610403776,330.49,-0.007455549202859402,0.00629007164388895,2.0854761600494385,-0.4334734082221985,4.123611927032471,-0.7341885566711426
0.0,0.0,0.0,0.0,53.0,50.0,50.0,50.0,11.630000114440918,11.710000038146973,10.5600004196167,11.729999542236328,0.0007578765507787466,-0.003177459118887782,,-0.0392266,-0.15690639999999886,9.218251,-0.0008209771476686001,-0.00019341724691912543,-0.0009815364610403776,330.49,-0.007455549202859402,0.00629007164388895,2.0854761600494385,-0.4334734082221985,4.123611927032471,-0.7341885566711426
0.0,0.0,0.0,0.0,53.0,50.0,50.0,50.0,11.630000114440918,11.710000038146973,10.5600004196167,11.729999542236328,-0.0011501285480335355,-0.0033813058398663998,,-0.0392266,-0.15690639999999886,9.218251,-0.0008209771476686001,-0.00019341724691912543,-0.0009815364610403776,330.49,-0.007455549202859402,0.00629007164388895,2.0854761600494385,-0.4334734082221985,4.123611927032471,-0.7341885566711426
0.0,0.0,0.0,0.0,53.0,50.0,50.0,50.0,11.630000114440918,11.710000038146973,10.5600004196167,11.729999542236328,0.0012726210989058018,-0.0008606865885667503,,-0.0392266,-0.15690639999999886,9.218251,-0.0008209771476686001,-0.00019341724691912543,-0.0009815364610403776,330.48,-0.007362947799265385,0.006342725828289986,2.0858888626098633,-0.4312439262866974,4.132153034210205,-0.7401280403137207
0.0,0.0,0.0,0.0,53.0,50.0,50.0,50.0,11.630000114440918,11.710000038146973,10.5600004196167,11.729999542236328,0.0005988216144032776,0.003185490844771266,,-0.0392266,-0.15690639999999886,9.218251,-0.0008209771476686001,-0.00019341724691912543,-0.0009815364610403776,330.48,-0.007362947799265385,0.006342725828289986,2.0858888626098633,-0.4312439262866974,4.132153034210205,-0.7401280403137207
0.0,0.0,0.0,0.0,53.0,50.0,50.0,50.0,11.630000114440918,11.710000038146973,10.5600004196167,11.729999542236328,-0.001391896279528737,-0.002591518685221672,,-0.0392266,-0.15690639999999886,9.218251,-0.0008209771476686001,-0.00019341724691912543,-0.0009815364610403776,330.47,-0.007362947799265385,0.006342725828289986,2.0858888626098633,-0.42989715933799744,4.136759281158447,-0.7449007034301758
0.0,0.0,0.0,0.0,53.0,50.0,50.0,50.0,11.630000114440918,11.710000038146973,10.5600004196167,11.729999542236328,-0.00146483164280653,-0.0024968604557216167,,-0.0392266,-0.15690639999999886,9.218251,-0.0008209771476686001,-0.00019341724691912543,-0.0009815364610403776,330.47,-0.007362947799265385,0.006342725828289986,2.0858888626098633,-0.42871564626693726,4.140355587005615,-0.7489582300186157
0.0,0.0,0.0,0.0,53.0,50.0,50.0,50.0,11.630000114440918,11.710000038146973,10.5600004196167,11.729999542236328,-0.00146483164280653,-0.0024968604557216167,,-0.0392266,-0.15690639999999886,9.218251,-0.0008209771476686001,-0.00019341724691912543,-0.0009815364610403776,330.47,-0.007362947799265385,0.006342725828289986,2.0858888626098633,-0.4275316894054413,4.142690181732178,-0.751025378704071
0.0,0.0,0.0,0.0,53.0,50.0,50.0,50.0,11.630000114440918,11.710000038146973,10.5600004196167,11.729999542236328,-0.0008582765003666282,-0.0010100790532305837,,-0.0392266,-0.13729309999999886,9.218251,-1.857324969023466e-05,-0.0009404806187376381,-0.000760080525651574,330.47,-0.007362947799265385,0.006342725828289986,2.0858888626098633,-0.4275316894054413,4.142690181732178,-0.751025378704071
0.0,0.0,0.0,0.0,50.0,50.0,50.0,50.0,11.710000038146973,11.449999809265137,11.710000038146973,11.270000457763672,0.0011722501367330551,-0.0018385050352662802,,-0.0392266,-0.13729309999999886,9.218251,-1.857324969023466e-05,-0.0009404806187376381,-0.000760080525651574,330.46,-0.007362947799265385,0.006342725828289986,2.0858888626098633,-0.4275316894054413,4.142690181732178,-0.751025378704071
0.0,0.0,0.0,0.0,50.0,50.0,50.0,50.0,11.710000038146973,11.449999809265137,11.710000038146973,11.270000457763672,0.0035941803362220526,0.0051871067844331264,,-0.0392266,-0.13729309999999886,9.218251,-1.857324969023466e-05,-0.0009404806187376381,-0.000760080525651574,330.46,-0.007565229199826717,0.006351139396429062,2.0863449573516846,-0.4267270863056183,4.146987438201904,-0.759880781173706
0.0,0.0,0.0,0.0,50.0,50.0,50.0,50.0,11.710000038146973,11.449999809265137,11.710000038146973,11.270000457763672,-0.0019395791459828615,0.0023124206345528364,,-0.0392266,-0.13729309999999886,9.218251,-1.857324969023466e-05,-0.0009404806187376381,-0.000760080525651574,330.46,-0.007565229199826717,0.006351139396429062,2.0863449573516846,-0.4257936477661133,4.149113655090332,-0.764175295829773
0.0,0.0,0.0,0.0,50.0,50.0,50.0,50.0,11.710000038146973,11.449999809265137,11.710000038146973,11.270000457763672,0.0008295514271594584,-0.001953733153641224,,-0.0392266,-0.13729309999999886,9.218251,-1.857324969023466e-05,-0.0009404806187376381,-0.000760080525651574,330.45,-0.007565229199826717,0.006351139396429062,2.0863449573516846,-0.4257936477661133,4.149113655090332,-0.764175295829773
0.0,0.0,0.0,0.0,50.0,50.0,50.0,50.0,11.710000038146973,11.449999809265137,11.710000038146973,11.270000457763672,0.00023766327649354935,-0.00021860927517991513,,-0.0392266,-0.13729309999999886,9.218251,-1.857324969023466e-05,-0.0009404806187376381,-0.000760080525651574,330.45,-0.007565229199826717,0.006351139396429062,2.0863449573516846,-0.42750677466392517,4.149308681488037,-0.770584225654602
0.0,0.0,0.0,0.0,50.0,50.0,50.0,50.0,11.710000038146973,11.449999809265137,11.710000038146973,11.270000457763672,0.003346559125930071,0.0006018677377142012,,-0.0392266,-0.13729309999999886,9.218251,-1.857324969023466e-05,-0.0009404806187376381,-0.000760080525651574,330.44,-0.007565229199826717,0.006351139396429062,2.0863449573516846,-0.42845049500465393,4.149723529815674,-0.7758061289787292
0.0,0.0,0.0,0.0,50.0,50.0,50.0,50.0,11.710000038146973,11.449999809265137,11.710000038146973,11.270000457763672,-0.002398564014583826,-0.005301123484969139,,-0.0588399,-0.15690639999999886,9.2770909,0.0004029112169519067,0.0006157685420475899,-0.0011999707203358412,330.44,-0.007565229199826717,0.006351139396429062,2.0863449573516846,-0.42900580167770386,4.150107383728027,-0.7802444100379944
0.0,0.0,0.0,0.0,50.0,50.0,50.0,54.0,11.710000038146973,11.350000381469727,11.640000343322754,11.079999923706055,0.0013781485613435507,0.0005287164822220802,,-0.0588399,-0.15690639999999886,9.2770909,0.0004029112169519067,0.0006157685420475899,-0.0011999707203358412,330.44,-0.007565229199826717,0.006351139396429062,2.0863449573516846,-0.42900580167770386,4.150107383728027,-0.7802444100379944
0.0,0.0,0.0,0.0,50.0,50.0,50.0,54.0,11.710000038146973,11.350000381469727,11.640000343322754,11.079999923706055,0.0001205181615659967,-0.00371110113337636,,-0.0588399,-0.15690639999999886,9.2770909,0.0004029112169519067,0.0006157685420475899,-0.0011999707203358412,330.43,-0.008028793148696423,0.0062462082132697105,2.086808204650879,-0.4265640377998352,4.1562418937683105,-0.7927262783050537
0.0,0.0,0.0,0.0,50.0,50.0,50.0,54.0,11.710000038146973,11.350000381469727,11.640000343322754,11.079999923706055,0.0001693570229690522,-0.0002916508528869599,,-0.0588399,-0.15690639999999886,9.2770909,0.0004029112169519067,0.0006157685420475899,-0.0011999707203358412,330.43,-0.008028793148696423,0.0062462082132697105,2.086808204650879,-0.42520248889923096,4.158905982971191,-0.7983535528182983
0.0,0.0,0.0,0.0,50.0,50.0,50.0,54.0,11.710000038146973,11.350000381469727,11.640000343322754,11.079999923706055,0.0006659866194240749,0.003001562552526593,,-0.0588399,-0.15690639999999886,9.2770909,0.0004029112169519067,0.0006157685420475899,-0.0011999707203358412,330.43,-0.008028793148696423,0.0062462082132697105,2.086808204650879,-0.4237481355667114,4.161985397338867,-0.802731990814209
0.0,0.0,0.0,0.0,50.0,50.0,50.0,54.0,11.710000038146973,11.350000381469727,11.640000343322754,11.079999923706055,-0.00012703197717200965,0.001141232904046774,,-0.0588399,-0.15690639999999886,9.2770909,0.0004029112169519067,0.0006157685420475899,-0.0011999707203358412,330.42,-0.008028793148696423,0.0062462082132697105,2.086808204650879,-0.4237481355667114,4.161985397338867,-0.802731990814209
0.0,0.0,0.0,0.0,50.0,50.0,50.0,54.0,11.710000038146973,11.350000381469727,11.640000343322754,11.079999923706055,0.0003800660197157413,-4.447977335075848e-05,,-0.0588399,-0.15690639999999886,9.2770909,0.0004029112169519067,0.0006157685420475899,-0.0011999707203358412,330.42,-0.008028793148696423,0.0062462082132697105,2.086808204650879,-0.4218158423900604,4.167349338531494,-0.8118573427200317
0.0,0.0,0.0,0.0,50.0,50.0,50.0,54.0,11.710000038146973,11.350000381469727,11.640000343322754,11.079999923706055,-0.0002620671584736556,-0.0027112180832773447,,-0.0588399,-0.15690639999999886,9.2770909,0.0004029112169519067,0.0006157685420475899,-0.0011999707203358412,330.42,-0.008028793148696423,0.0062462082132697105,2.086808204650879,-0.4198528528213501,4.17153263092041,-0.8164293766021729
0.0,0.0,0.0,0.0,50.0,50.0,50.0,54.0,11.710000038146973,11.350000381469727,11.640000343322754,11.079999923706055,0.0005925253499299288,-0.0013185364659875631,,-0.0392266,-0.14709974999999886,9.24767095,-9.601772762835026e-05,-6.33411982562394e-05,-0.0009037517011165619,330.42,-0.008028793148696423,0.0062462082132697105,2.086808204650879,-0.4198528528213501,4.17153263092041,-0.8164293766021729
0.0,0.0,0.0,0.0,50.0,50.0,50.0,50.0,11.729999542236328,11.6899995803833,11.729999542236328,11.579999923706055,0.001977053936570883,0.0014901399845257401,,-0.0392266,-0.14709974999999886,9.24767095,-9.601772762835026e-05,-6.33411982562394e-05,-0.0009037517011165619,330.41,-0.008028793148696423,0.0062462082132697105,2.086808204650879,-0.4198528528213501,4.17153263092041,-0.8164293766021729
0.0,0.0,0.0,0.0,50.0,50.0,50.0,50.0,11.729999542236328,11.6899995803833,11.729999542236328,11.579999923706055,-0.0014357251347973943,-0.0007915549213066697,,-0.0392266,-0.14709974999999886,9.24767095,-9.601772762835026e-05,-6.33411982562394e-05,-0.0009037517011165619,330.41,-0.007813646458089352,0.006326225120574236,2.087219715118408,-0.41436687111854553,4.174355983734131,-0.8216665387153625
0.0,0.0,0.0,0.0,50.0,50.0,50.0,50.0,11.729999542236328,11.6899995803833,11.729999542236328,11.579999923706055,0.00030460371635854244,0.0021438475232571363,,-0.0392266,-0.14709974999999886,9.24767095,-9.601772762835026e-05,-6.33411982562394e-05,-0.0009037517011165619,330.41,-0.007813646458089352,0.006326225120574236,2.087219715118408,-0.41212737560272217,4.175178050994873,-0.8221133947372437
0.0,0.0,0.0,0.0,50.0,50.0,50.0,50.0,11.729999542236328,11.6899995803833,11.729999542236328,11.579999923706055,0.002944770036265254,0.004326301626861095,,-0.0392266,-0.14709974999999886,9.24767095,-9.601772762835026e-05,-6.33411982562394e-05,-0.0009037517011165619,330.4,-0.007813646458089352,0.006326225120574236,2.087219715118408,-0.4108946919441223,4.179911136627197,-0.8245545029640198
0.0,0.0,0.0,0.0,50.0,50.0,50.0,50.0,11.729999542236328,11.6899995803833,11.729999542236328,11.579999923706055,0.002905332250520587,0.004123919643461704,,-0.0392266,-0.14709974999999886,9.24767095,-9.601772762835026e-05,-6.33411982562394e-05,-0.0009037517011165619,330.4,-0.007813646458089352,0.006326225120574236,2.087219715118408,-0.4101218581199646,4.185189247131348,-0.8269848823547363
0.0,0.0,0.0,0.0,50.0,50.0,50.0,50.0,11.729999542236328,11.6899995803833,11.729999542236328,11.579999923706055,0.002905332250520587,0.004123919643461704,,-0.0392266,-0.14709974999999886,9.24767095,-9.601772762835026e-05,-6.33411982562394e-05,-0.0009037517011165619,330.39,-0.007813646458089352,0.006326225120574236,2.087219715118408,-0.4101218581199646,4.185189247131348,-0.8269848823547363
0.0,0.0,0.0,0.0,50.0,50.0,50.0,50.0,11.729999542236328,11.6899995803833,11.729999542236328,11.579999923706055,-0.002530130557715893,0.002233705250546336,,-0.04903325,-0.16671304999999886,9.24767095,-0.0003493339754641056,0.00014700925385113797,-0.000657984521239996,330.39,-0.007813646458089352,0.006326225120574236,2.087219715118408,-0.40892407298088074,4.19095516204834,-0.8290685415267944
0.0,0.0,0.0,0.0,50.0,50.0,50.0,50.0,11.729999542236328,11.6899995803833,11.729999542236328,11.579999923706055,-0.002530130557715893,0.002233705250546336,,-0.04903325,-0.16671304999999886,9.24767095,-0.0003493339754641056,0.00014700925385113797,-0.000657984521239996,330.39,-0.007813646458089352,0.006326225120574236,2.087219715118408,-0.40892407298088074,4.19095516204834,-0.8290685415267944
0.0,0.0,0.0,0.0,51.0,50.0,51.0,50.0,11.710000038146973,11.539999961853027,11.489999771118164,11.59000015258789,0.00047860248014330864,0.0034571082796901464,,-0.04903325,-0.16671304999999886,9.24767095,-0.0003493339754641056,0.00014700925385113797,-0.000657984521239996,330.39,-0.007813646458089352,0.006326225120574236,2.087219715118408,-0.40892407298088074,4.19095516204834,-0.8290685415267944
0.0,0.0,0.0,0.0,51.0,50.0,51.0,50.0,11.710000038146973,11.539999961853027,11.489999771118164,11.59000015258789,0.00019951128342654556,0.0008403908577747643,,-0.04903325,-0.16671304999999886,9.24767095,-0.0003493339754641056,0.00014700925385113797,-0.000657984521239996,330.38,-0.00785293523222208,0.0063501992262899876,2.0876636505126953,-0.40504276752471924,4.191271781921387,-0.8350311517715454
0.0,0.0,0.0,0.0,51.0,50.0,51.0,50.0,11.710000038146973,11.539999961853027,11.489999771118164,11.59000015258789,0.0014862698735669255,9.014375973492861e-05,,-0.04903325,-0.16671304999999886,9.24767095,-0.0003493339754641056,0.00014700925385113797,-0.000657984521239996,330.38,-0.00785293523222208,0.0063501992262899876,2.0876636505126953,-0.40289005637168884,4.19115686416626,-0.8376057147979736
0.0,0.0,0.0,0.0,51.0,50.0,51.0,50.0,11.710000038146973,11.539999961853027,11.489999771118164,11.59000015258789,0.0013504188973456621,-0.0022551652509719133,,-0.04903325,-0.16671304999999886,9.24767095,-0.0003493339754641056,0.00014700925385113797,-0.000657984521239996,330.38,-0.00785293523222208,0.0063501992262899876,2.0876636505126953,-0.4013504087924957,4.192424774169922,-0.8396031260490417
0.0,0.0,0.0,0.0,51.0,50.0,51.0,50.0,11.710000038146973,11.539999961853027,11.489999771118164,11.59000015258789,-0.00018412897770758718,-0.002653155941516161,,-0.04903325,-0.16671304999999886,9.24767095,-0.0003493339754641056,0.00014700925385113797,-0.000657984521239996,330.37,-0.00785293523222208,0.0063501992262899876,2.0876636505126953,-0.4013504087924957,4.192424774169922,-0.8396031260490417
0.0,0.0,0.0,0.0,51.0,50.0,51.0,50.0,11.710000038146973,11.539999961853027,11.489999771118164,11.59000015258789,0.0015042942250147462,-0.0016316146356984973,,-0.04903325,-0.16671304999999886,9.24767095,-0.0003493339754641056,0.00014700925385113797,-0.000657984521239996,330.37,-0.00785293523222208,0.0063501992262899876,2.0876636505126953,-0.39942994713783264,4.196227073669434,-0.844879150390625
0.0,0.0,0.0,0.0,51.0,50.0,51.0,50.0,11.710000038146973,11.539999961853027,11.489999771118164,11.59000015258789,-0.005620504263788462,0.0013730808859691024,,-0.0392266,-0.14709974999999886,9.2378643,-0.0008222131291404366,-0.0007789323572069408,-0.0006829542107880114,330.37,-0.00785293523222208,0.0063501992262899876,2.0876636505126953,-0.39802512526512146,4.1983642578125,-0.8480269908905029
0.0,0.0,0.0,0.0,50.0,50.0,50.0,50.0,11.539999961853027,11.5600004196167,11.569999694824219,10.65999984741211,0.003714255290105939,0.000780529691837728,,-0.0392266,-0.14709974999999886,9.2378643,-0.0008222131291404366,-0.0007789323572069408,-0.0006829542107880114,330.37,-0.00785293523222208,0.0063501992262899876,2.0876636505126953,-0.39802512526512146,4.1983642578125,-0.8480269908905029
12213.0,12314.0,11557.0,12471.0,49.0,52.0,49.0,48.0,11.140000343322754,10.90999984741211,11.010000228881836,11.170000076293945,0.6747725009918213,-3.8395795822143555,,-0.20593965,-0.3236194499999988,9.639936950000001,0.06228264048695564,-0.21388547122478485,0.0027027076575905345,337.11,-0.02021898329257965,0.134459987282753,1.9614934921264648,0.38835403323173523,4.601914882659912,-0.518765389919281
12213.0,12314.0,11557.0,12471.0,49.0,52.0,49.0,48.0,11.140000343322754,10.90999984741211,11.010000228881836,11.170000076293945,3.1060056686401367,-6.091572284698486,,-0.20593965,-0.3236194499999988,9.639936950000001,0.06228264048695564,-0.21388547122478485,0.0027027076575905345,337.11,-0.02021898329257965,0.134459987282753,1.9614934921264648,0.3971131145954132,4.642076015472412,-0.47099995613098145
12213.0,12314.0,11557.0,12471.0,49.0,52.0,49.0,48.0,11.140000343322754,10.90999984741211,11.010000228881836,11.170000076293945,4.531805992126465,-7.388289928436279,,-0.20593965,-0.3236194499999988,9.639936950000001,0.06228264048695564,-0.21388547122478485,0.0027027076575905345,336.88,-0.02021898329257965,0.134459987282753,1.9614934921264648,0.3971131145954132,4.642076015472412,-0.47099995613098145
12213.0,12314.0,11557.0,12471.0,49.0,52.0,49.0,48.0,11.140000343322754,10.90999984741211,11.010000228881836,11.170000076293945,4.531805992126465,-7.388289928436279,,-0.20593965,-0.3236194499999988,9.639936950000001,0.06228264048695564,-0.21388547122478485,0.0027027076575905345,336.85,-0.02021898329257965,0.134459987282753,1.9614934921264648,0.411923348903656,4.712862968444824,-0.3925817310810089
12213.0,12314.0,11557.0,12471.0,49.0,52.0,49.0,48.0,11.140000343322754,10.90999984741211,11.010000228881836,11.170000076293945,5.058839321136475,-6.785704612731934,,-0.20593965,-0.3236194499999988,9.639936950000001,0.06228264048695564,-0.21388547122478485,0.0027027076575905345,336.76,-0.02021898329257965,0.134459987282753,1.9614934921264648,0.4201486110687256,4.763902187347412,-0.3420790433883667
12213.0,12314.0,11557.0,12471.0,49.0,52.0,49.0,48.0,11.140000343322754,10.90999984741211,11.010000228881836,11.170000076293945,4.69534969329834,-6.226531982421875,,-0.40207265000000003,-0.25497289999999884,9.67916355,-0.041060108691453934,0.09971254318952562,0.05922704562544821,336.76,-0.02021898329257965,0.134459987282753,1.9614934921264648,0.4289586544036865,4.832996368408203,-0.27892574667930603
11785.0,11914.0,12728.0,12534.0,49.0,52.0,49.0,48.0,11.140000343322754,10.90999984741211,11.010000228881836,11.170000076293945,6.243474006652832,-6.396360874176025,,-0.40207265000000003,-0.25497289999999884,9.67916355,-0.041060108691453934,0.09971254318952562,0.05922704562544821,336.76,-0.02021898329257965,0.134459987282753,1.9614934921264648,0.4289586544036865,4.832996368408203,-0.27892574667930603
11785.0,11914.0,12728.0,12534.0,49.0,49.0,49.0,49.0,10.920000076293945,10.960000038146973,11.039999961853027,10.859999656677246,6.2401556968688965,-6.543817520141602,,-0.40207265000000003,-0.25497289999999884,9.67916355,-0.041060108691453934,0.09971254318952562,0.05922704562544821,336.42,-0.02021898329257965,0.134459987282753,1.9614934921264648,0.4289586544036865,4.832996368408203,-0.27892574667930603
11785.0,11914.0,12728.0,12534.0,49.0,49.0,49.0,49.0,10.920000076293945,10.960000038146973,11.039999961853027,10.859999656677246,7.086014270782471,-8.671224594116211,,-0.40207265000000003,-0.25497289999999884,9.67916355,-0.041060108691453934,0.09971254318952562,0.05922704562544821,336.42,-0.006330943666398525,0.17772230505943298,1.978052020072937,0.4356544017791748,4.966107368469238,-0.16970451176166534
11785.0,11914.0,12728.0,12534.0,49.0,49.0,49.0,49.0,10.920000076293945,10.960000038146973,11.039999961853027,10.859999656677246,6.387632369995117,-9.086041450500488,,-0.40207265000000003,-0.25497289999999884,9.67916355,-0.041060108691453934,0.09971254318952562,0.05922704562544821,335.45,-0.006330943666398525,0.17772230505943298,1.978052020072937,0.4350895881652832,5.081894397735596,-0.08470343053340912
11785.0,11914.0,12728.0,12534.0,49.0,49.0,49.0,49.0,10.920000076293945,10.960000038146973,11.039999961853027,10.859999656677246,7.743630886077881,-10.297533988952637,,-0.40207265000000003,-0.25497289999999884,9.67916355,-0.041060108691453934,0.09971254318952562,0.05922704562544821,335.45,-0.006330943666398525,0.17772230505943298,1.978052020072937,0.4383656084537506,5.163670539855957,-0.02838669717311859
11785.0,11914.0,12728.0,12534.0,49.0,49.0,49.0,49.0,10.920000076293945,10.960000038146973,11.039999961853027,10.859999656677246,7.743630886077881,-10.297533988952637,,-0.40207265000000003,-0.25497289999999884,9.67916355,-0.041060108691453934,0.09971254318952562,0.05922704562544821,335.73,-0.006330943666398525,0.17772230505943298,1.978052020072937,0.43873700499534607,5.254896640777588,0.03153035044670105
11785.0,11914.0,12728.0,12534.0,49.0,49.0,49.0,49.0,10.920000076293945,10.960000038146973,11.039999961853027,10.859999656677246,6.402597904205322,-8.898971557617188,,-0.40207265000000003,-0.25497289999999884,9.67916355,-0.041060108691453934,0.09971254318952562,0.05922704562544821,336.08,-0.006330943666398525,0.17772230505943298,1.978052020072937,0.43873700499534607,5.254896640777588,0.03153035044670105
11785.0,11914.0,12728.0,12534.0,49.0,49.0,49.0,49.0,10.920000076293945,10.960000038146973,11.039999961853027,10.859999656677246,8.203203201293945,-10.12464714050293,,-0.6472389000000001,-0.3040061499999988,9.80665,-0.007182713598012924,-0.3054099678993225,-0.03149674832820889,336.08,-0.006330943666398525,0.17772230505943298,1.978052020072937,0.4391710162162781,5.379262924194336,0.11168625950813293
11000.0,11485.0,12728.0,11328.0,49.0,49.0,49.0,49.0,11.010000228881836,10.859999656677246,10.9399995803833,11.069999694824219,8.653109550476074,-10.392313003540039,,-0.6472389000000001,-0.3040061499999988,9.80665,-0.007182713598012924,-0.3054099678993225,-0.03149674832820889,336.08,-0.006330943666398525,0.17772230505943298,1.978052020072937,0.4391710162162781,5.379262924194336,0.11168625950813293
11000.0,11485.0,12728.0,11328.0,49.0,49.0,49.0,49.0,11.010000228881836,10.859999656677246,10.9399995803833,11.069999694824219,8.204353332519531,-12.08310604095459,,-0.6472389000000001,-0.3040061499999988,9.80665,-0.007182713598012924,-0.3054099678993225,-0.03149674832820889,336.16,-0.006330943666398525,0.17772230505943298,1.978052020072937,0.4391710162162781,5.379262924194336,0.11168625950813293
11000.0,11485.0,12728.0,11328.0,49.0,49.0,49.0,49.0,11.010000228881836,10.859999656677246,10.9399995803833,11.069999694824219,7.412417411804199,-11.195686340332031,,-0.6472389000000001,-0.3040061499999988,9.80665,-0.007182713598012924,-0.3054099678993225,-0.03149674832820889,336.03,-0.0008017495274543762,0.12621799111366272,1.987268090248108,0.45025014877319336,5.617257595062256,0.27248841524124146
11000.0,11485.0,12728.0,11328.0,49.0,49.0,49.0,49.0,11.010000228881836,10.859999656677246,10.9399995803833,11.069999694824219,7.55474853515625,-13.356391906738281,,-0.6472389000000001,-0.3040061499999988,9.80665,-0.007182713598012924,-0.3054099678993225,-0.03149674832820889,336.84,-0.0008017495274543762,0.12621799111366272,1.987268090248108,0.45366835594177246,5.717968463897705,0.3411489725112915
11000.0,11485.0,12728.0,11328.0,49.0,49.0,49.0,49.0,11.010000228881836,10.859999656677246,10.9399995803833,11.069999694824219,5.013500690460205,-10.400346755981445,,-0.6472389000000001,-0.3040061499999988,9.80665,-0.007182713598012924,-0.3054099678993225,-0.03149674832820889,339.13,-0.0008017495274543762,0.12621799111366272,1.987268090248108,0.4662324786186218,5.819417476654053,0.41280823945999146
11000.0,11485.0,12728.0,11328.0,49.0,49.0,49.0,49.0,11.010000228881836,10.859999656677246,10.9399995803833,11.069999694824219,5.013500690460205,-10.400346755981445,,-0.6472389000000001,-0.3040061499999988,9.80665,-0.007182713598012924,-0.3054099678993225,-0.03149674832820889,340.65,-0.0008017495274543762,0.12621799111366272,1.987268090248108,0.48085591197013855,5.945651054382324,0.502594530582428
11000.0,11485.0,12728.0,11328.0,49.0,49.0,49.0,49.0,11.010000228881836,10.859999656677246,10.9399995803833,11.069999694824219,3.823350667953491,-8.492392539978027,,-0.6472389000000001,-0.3040061499999988,9.80665,-0.007182713598012924,-0.3054099678993225,-0.03149674832820889,340.65,-0.0008017495274543762,0.12621799111366272,1.987268090248108,0.48085591197013855,5.945651054382324,0.502594530582428
11000.0,11485.0,12728.0,11328.0,49.0,49.0,49.0,49.0,11.010000228881836,10.859999656677246,10.9399995803833,11.069999694824219,2.41679048538208,-4.822350978851318,,-0.6668522,-0.23535959999999878,9.9635564,-0.13446079194545746,0.015289223752915852,-0.06293858587741852,340.65,-0.0008017495274543762,0.12621799111366272,1.987268090248108,0.5006607174873352,6.096412181854248,0.6139869093894958
11885.0,11775.0,11408.0,13400.0,49.0,48.0,49.0,49.0,11.050000190734863,11.140000343322754,10.9399995803833,10.34000015258789,1.9859237670898438,-2.891677141189575,,-0.6668522,-0.23535959999999878,9.9635564,-0.13446079194545746,0.015289223752915852,-0.06293858587741852,340.65,-0.0008017495274543762,0.12621799111366272,1.987268090248108,0.5006607174873352,6.096412181854248,0.6139869093894958
11885.0,11775.0,11408.0,13400.0,49.0,48.0,49.0,49.0,11.050000190734863,11.140000343322754,10.9399995803833,10.34000015258789,2.541809320449829,-5.10577917098999,,-0.6668522,-0.23535959999999878,9.9635564,-0.13446079194545746,0.015289223752915852,-0.06293858587741852,340.74,-0.0008017495274543762,0.12621799111366272,1.987268090248108,0.5006607174873352,6.096412181854248,0.6139869093894958
11885.0,11775.0,11408.0,13400.0,49.0,48.0,49.0,49.0,11.050000190734863,11.140000343322754,10.9399995803833,10.34000015258789,2.0421302318573,-4.6968770027160645,,-0.6668522,-0.23535959999999878,9.9635564,-0.13446079194545746,0.015289223752915852,-0.06293858587741852,340.88,-0.0005682362243533134,0.07627313584089279,1.9062304496765137,0.5340337157249451,6.343429088592529,0.8100363612174988
11885.0,11775.0,11408.0,13400.0,49.0,48.0,49.0,49.0,11.050000190734863,11.140000343322754,10.9399995803833,10.34000015258789,1.9465733766555786,-4.027462482452393,,-0.6668522,-0.23535959999999878,9.9635564,-0.13446079194545746,0.015289223752915852,-0.06293858587741852,340.99,-0.0005682362243533134,0.07627313584089279,1.9062304496765137,0.549653172492981,6.447617053985596,0.8970131874084473
11885.0,11775.0,11408.0,13400.0,49.0,48.0,49.0,49.0,11.050000190734863,11.140000343322754,10.9399995803833,10.34000015258789,1.7338041067123413,-4.71907377243042,,-0.6668522,-0.23535959999999878,9.9635564,-0.13446079194545746,0.015289223752915852,-0.06293858587741852,340.91,-0.0005682362243533134,0.07627313584089279,1.9062304496765137,0.572813093662262,6.561909198760986,0.9969561696052551
11885.0,11775.0,11408.0,13400.0,49.0,48.0,49.0,49.0,11.050000190734863,11.140000343322754,10.9399995803833,10.34000015258789,3.447736978530884,-7.742842674255371,,-0.6668522,-0.23535959999999878,9.9635564,-0.13446079194545746,0.015289223752915852,-0.06293858587741852,340.91,-0.0005682362243533134,0.07627313584089279,1.9062304496765137,0.5968486070632935,6.6714348793029785,1.0963152647018433
11885.0,11775.0,11408.0,13400.0,49.0,48.0,49.0,49.0,11.050000190734863,11.140000343322754,10.9399995803833,10.34000015258789,3.447736978530884,-7.742842674255371,,-0.6668522,-0.23535959999999878,9.9635564,-0.13446079194545746,0.015289223752915852,-0.06293858587741852,340.5,-0.0005682362243533134,0.07627313584089279,1.9062304496765137,0.5968486070632935,6.6714348793029785,1.0963152647018433
11885.0,11775.0,11408.0,13400.0,49.0,48.0,49.0,49.0,11.050000190734863,11.140000343322754,10.9399995803833,10.34000015258789,3.0818164348602295,-6.2868781089782715,,-0.59820565,-0.3236194499999988,9.5320638,0.028922539204359055,0.030034499242901816,0.1267300546169281,340.5,-0.0005682362243533134,0.07627313584089279,1.9062304496765137,0.6306198835372925,6.827498912811279,1.239003300666809
11142.0,12000.0,11342.0,11185.0,49.0,48.0,50.0,49.0,10.9399995803833,11.079999923706055,10.920000076293945,10.850000381469727,3.022195339202881,-5.418951034545898,,-0.59820565,-0.3236194499999988,9.5320638,0.028922539204359055,0.030034499242901816,0.1267300546169281,339.89,-0.0005682362243533134,0.07627313584089279,1.9062304496765137,0.6306198835372925,6.827498912811279,1.239003300666809
11142.0,12000.0,11342.0,11185.0,49.0,48.0,50.0,49.0,10.9399995803833,11.079999923706055,10.920000076293945,10.850000381469727,3.022195339202881,-5.418951034545898,,-0.59820565,-0.3236194499999988,9.5320638,0.028922539204359055,0.030034499242901816,0.1267300546169281,339.89,0.0010363422334194183,0.03771556168794632,1.9146240949630737,0.6815608739852905,7.027980327606201,1.4247251749038696
11142.0,12000.0,11342.0,11185.0,49.0,48.0,50.0,49.0,10.9399995803833,11.079999923706055,10.920000076293945,10.850000381469727,4.051572799682617,-5.920739650726318,,-0.59820565,-0.3236194499999988,9.5320638,0.028922539204359055,0.030034499242901816,0.1267300546169281,339.31,0.0010363422334194183,0.03771556168794632,1.9146240949630737,0.6815608739852905,7.027980327606201,1.4247251749038696
11142.0,12000.0,11342.0,11185.0,49.0,48.0,50.0,49.0,10.9399995803833,11.079999923706055,10.920000076293945,10.850000381469727,3.944556951522827,-7.1615824699401855,,-0.59820565,-0.3236194499999988,9.5320638,0.028922539204359055,0.030034499242901816,0.1267300546169281,336.06,0.0010363422334194183,0.03771556168794632,1.9146240949630737,0.7133275866508484,7.159162521362305,1.5474942922592163
11142.0,12000.0,11342.0,11185.0,49.0,48.0,50.0,49.0,10.9399995803833,11.079999923706055,10.920000076293945,10.850000381469727,3.868988037109375,-7.750950813293457,,-0.59820565,-0.3236194499999988,9.5320638,0.028922539204359055,0.030034499242901816,0.1267300546169281,335.86,0.0010363422334194183,0.03771556168794632,1.9146240949630737,0.7527636289596558,7.291950225830078,1.6827199459075928
11142.0,12000.0,11342.0,11185.0,49.0,48.0,50.0,49.0,10.9399995803833,11.079999923706055,10.920000076293945,10.850000381469727,3.868988037109375,-7.750950813293457,,-0.59820565,-0.3236194499999988,9.5320638,0.028922539204359055,0.030034499242901816,0.1267300546169281,335.83,0.0010363422334194183,0.03771556168794632,1.9146240949630737,0.7853142619132996,7.406912326812744,1.798073649406433
11142.0,12000.0,11342.0,11185.0,49.0,48.0,50.0,49.0,10.9399995803833,11.079999923706055,10.920000076293945,10.850000381469727,4.1700029373168945,-7.964233875274658,,-0.59820565,-0.3236194499999988,9.5320638,0.028922539204359055,0.030034499242901816,0.1267300546169281,335.83,0.0010363422334194183,0.03771556168794632,1.9146240949630737,0.7853142619132996,7.406912326812744,1.798073649406433
11142.0,12000.0,11342.0,11185.0,49.0,48.0,50.0,49.0,10.9399995803833,11.079999923706055,10.920000076293945,10.850000381469727,4.344698905944824,-8.333684921264648,,-0.6668522,-0.22555294999999903,8.03164635,-0.8149227499961853,-0.03634218126535416,-0.04394229874014854,335.83,0.0010363422334194183,0.03771556168794632,1.9146240949630737,0.812423586845398,7.5003838539123535,1.8918330669403076
11994.0,11900.0,10400.0,10214.0,49.0,49.0,49.0,49.0,11.609999656677246,11.300000190734863,11.050000190734863,11.020000457763672,4.817376136779785,-7.573673248291016,,-0.6668522,-0.22555294999999903,8.03164635,-0.8149227499961853,-0.03634218126535416,-0.04394229874014854,336.35,0.0010363422334194183,0.03771556168794632,1.9146240949630737,0.812423586845398,7.5003838539123535,1.8918330669403076
11994.0,11900.0,10400.0,10214.0,49.0,49.0,49.0,49.0,11.609999656677246,11.300000190734863,11.050000190734863,11.020000457763672,6.6052069664001465,-8.380559921264648,,-0.6668522,-0.22555294999999903,8.03164635,-0.8149227499961853,-0.03634218126535416,-0.04394229874014854,338.27,-0.09015419334173203,0.03533852845430374,1.991629958152771,0.8675656914710999,7.700150966644287,2.0904626846313477
11994.0,11900.0,10400.0,10214.0,49.0,49.0,49.0,49.0,11.609999656677246,11.300000190734863,11.050000190734863,11.020000457763672,8.145110130310059,-9.075989723205566,,-0.6668522,-0.22555294999999903,8.03164635,-0.8149227499961853,-0.03634218126535416,-0.04394229874014854,338.27,-0.09015419334173203,0.03533852845430374,1.991629958152771,0.8934827446937561,7.802683353424072,2.186556339263916
11994.0,11900.0,10400.0,10214.0,49.0,49.0,49.0,49.0,11.609999656677246,11.300000190734863,11.050000190734863,11.020000457763672,8.145110130310059,-9.075989723205566,,-0.6668522,-0.22555294999999903,8.03164635,-0.8149227499961853,-0.03634218126535416,-0.04394229874014854,341.2,-0.09015419334173203,0.03533852845430374,1.991629958152771,0.8934827446937561,7.802683353424072,2.186556339263916
11994.0,11900.0,10400.0,10214.0,49.0,49.0,49.0,49.0,11.609999656677246,11.300000190734863,11.050000190734863,11.020000457763672,12.990367889404297,-12.034965515136719,,-0.6668522,-0.22555294999999903,8.03164635,-0.8149227499961853,-0.03634218126535416,-0.04394229874014854,343.35,-0.09015419334173203,0.03533852845430374,1.991629958152771,0.919124186038971,7.926583290100098,2.2945263385772705
11994.0,11900.0,10400.0,10214.0,49.0,49.0,49.0,49.0,11.609999656677246,11.300000190734863,11.050000190734863,11.020000457763672,11.728015899658203,-10.284358024597168,,-0.6668522,-0.22555294999999903,8.03164635,-0.8149227499961853,-0.03634218126535416,-0.04394229874014854,344.07,-0.09015419334173203,0.03533852845430374,1.991629958152771,0.9378067255020142,8.030472755432129,2.378289222717285
11994.0,11900.0,10400.0,10214.0,49.0,49.0,49.0,49.0,11.609999656677246,11.300000190734863,11.050000190734863,11.020000457763672,7.262826919555664,-8.107194900512695,,-0.6668522,-0.22555294999999903,8.03164635,-0.8149227499961853,-0.03634218126535416,-0.04394229874014854,344.07,-0.09015419334173203,0.03533852845430374,1.991629958152771,0.95621258020401,8.14350414276123,2.4608380794525146
9571.0,10471.0,10393.0,9585.0,49.0,49.0,49.0,49.0,11.609999656677246,11.300000190734863,11.050000190734863,11.020000457763672,6.014229774475098,-3.1443324089050293,,-0.67665885,-0.5001391499999991,7.3549875,-0.10221109539270401,0.6166951656341553,-0.017559189349412994,344.07,-0.09015419334173203,0.03533852845430374,1.991629958152771,0.95621258020401,8.14350414276123,2.4608380794525146
9571.0,10471.0,10393.0,9585.0,49.0,49.0,49.0,50.0,11.039999961853027,11.0600004196167,11.119999885559082,11.020000457763672,6.014229774475098,-3.1443324089050293,,-0.67665885,-0.5001391499999991,7.3549875,-0.10221109539270401,0.6166951656341553,-0.017559189349412994,344.99,-0.09015419334173203,0.03533852845430374,1.991629958152771,0.95621258020401,8.14350414276123,2.4608380794525146
9571.0,10471.0,10393.0,9585.0,49.0,49.0,49.0,50.0,11.039999961853027,11.0600004196167,11.119999885559082,11.020000457763672,5.911350250244141,-2.229684352874756,,-0.67665885,-0.5001391499999991,7.3549875,-0.10221109539270401,0.6166951656341553,-0.017559189349412994,345.7,-0.07225802540779114,0.15811559557914734,1.8437548875808716,0.9782227277755737,8.356826782226562,2.579604148864746
9571.0,10471.0,10393.0,9585.0,49.0,49.0,49.0,50.0,11.039999961853027,11.0600004196167,11.119999885559082,11.020000457763672,5.300879955291748,-2.778998613357544,,-0.67665885,-0.5001391499999991,7.3549875,-0.10221109539270401,0.6166951656341553,-0.017559189349412994,345.5,-0.07225802540779114,0.15811559557914734,1.8437548875808716,0.9861919283866882,8.486928939819336,2.632195234298706
9571.0,10471.0,10393.0,9585.0,49.0,49.0,49.0,50.0,11.039999961853027,11.0600004196167,11.119999885559082,11.020000457763672,6.0379486083984375,-0.8047689199447632,,-0.67665885,-0.5001391499999991,7.3549875,-0.10221109539270401,0.6166951656341553,-0.017559189349412994,345.5,-0.07225802540779114,0.15811559557914734,1.8437548875808716,0.99007248878479,8.602635383605957,2.6674256324768066
9571.0,10471.0,10393.0,9585.0,49.0,49.0,49.0,50.0,11.039999961853027,11.0600004196167,11.119999885559082,11.020000457763672,6.259263515472412,-0.7472369074821472,,-0.67665885,-0.5001391499999991,7.3549875,-0.10221109539270401,0.6166951656341553,-0.017559189349412994,344.55,-0.07225802540779114,0.15811559557914734,1.8437548875808716,0.9911157488822937,8.70934772491455,2.6936521530151367
9571.0,10471.0,10393.0,9585.0,49.0,49.0,49.0,50.0,11.039999961853027,11.0600004196167,11.119999885559082,11.020000457763672,7.068359851837158,-2.8638598918914795,,-0.67665885,-0.5001391499999991,7.3549875,-0.10221109539270401,0.6166951656341553,-0.017559189349412994,343.79,-0.07225802540779114,0.15811559557914734,1.8437548875808716,0.9911157488822937,8.70934772491455,2.6936521530151367
9571.0,10471.0,10393.0,9585.0,49.0,49.0,49.0,50.0,11.039999961853027,11.0600004196167,11.119999885559082,11.020000457763672,5.8694000244140625,-4.266360759735107,,-0.6472389000000001,-0.509945799999999,8.3748791,-0.03439457342028618,-0.7644714713096619,0.04649217426776895,343.79,-0.07225802540779114,0.15811559557914734,1.8437548875808716,0.9906227588653564,8.846776008605957,2.7196991443634033
11114.0,12051.0,10542.0,11485.0,49.0,50.0,50.0,48.0,10.9399995803833,10.90999984741211,11.100000381469727,11.170000076293945,4.490910053253174,-5.6499857902526855,,-0.6472389000000001,-0.509945799999999,8.3748791,-0.03439457342028618,-0.7644714713096619,0.04649217426776895,343.63,-0.07225802540779114,0.15811559557914734,1.8437548875808716,0.9906227588653564,8.846776008605957,2.7196991443634033
11114.0,12051.0,10542.0,11485.0,49.0,50.0,50.0,48.0,10.9399995803833,10.90999984741211,11.100000381469727,11.170000076293945,3.408068895339966,-11.893216133117676,,-0.6472389000000001,-0.509945799999999,8.3748791,-0.03439457342028618,-0.7644714713096619,0.04649217426776895,343.63,-0.05840602144598961,0.14049944281578064,1.8554794788360596,0.9891018271446228,9.132073402404785,2.745239734649658
11114.0,12051.0,10542.0,11485.0,49.0,50.0,50.0,48.0,10.9399995803833,10.90999984741211,11.100000381469727,11.170000076293945,1.668013095855713,-12.676493644714355,,-0.6472389000000001,-0.509945799999999,8.3748791,-0.03439457342028618,-0.7644714713096619,0.04649217426776895,343.2,-0.05840602144598961,0.14049944281578064,1.8554794788360596,0.9891018271446228,9.132073402404785,2.745239734649658
11114.0,12051.0,10542.0,11485.0,49.0,50.0,50.0,48.0,10.9399995803833,10.90999984741211,11.100000381469727,11.170000076293945,1.668013095855713,-12.676493644714355,,-0.6472389000000001,-0.509945799999999,8.3748791,-0.03439457342028618,-0.7644714713096619,0.04649217426776895,342.38,-0.05840602144598961,0.14049944281578064,1.8554794788360596,0.9873746037483215,9.243512153625488,2.7533600330352783
11114.0,12051.0,10542.0,11485.0,49.0,50.0,50.0,48.0,10.9399995803833,10.90999984741211,11.100000381469727,11.170000076293945,1.7975037097930908,-17.565391540527344,,-0.6472389000000001,-0.509945799999999,8.3748791,-0.03439457342028618,-0.7644714713096619,0.04649217426776895,341.39,-0.05840602144598961,0.14049944281578064,1.8554794788360596,0.983450710773468,9.378005981445312,2.7552247047424316
11114.0,12051.0,10542.0,11485.0,49.0,50.0,50.0,48.0,10.9399995803833,10.90999984741211,11.100000381469727,11.170000076293945,5.310329914093018,-22.093852996826172,,-0.6472389000000001,-0.509945799999999,8.3748791,-0.03439457342028618,-0.7644714713096619,0.04649217426776895,340.54,-0.05840602144598961,0.14049944281578064,1.8554794788360596,0.9792214632034302,9.498184204101562,2.7582802772521973
11114.0,12051.0,10542.0,11485.0,49.0,50.0,50.0,48.0,10.9399995803833,10.90999984741211,11.100000381469727,11.170000076293945,6.241158485412598,-21.376779556274414,,-0.6472389000000001,-0.509945799999999,8.3748791,-0.03439457342028618,-0.7644714713096619,0.04649217426776895,340.54,-0.05840602144598961,0.14049944281578064,1.8554794788360596,0.9737720489501953,9.640646934509277,2.7648913860321045
11114.0,12051.0,10542.0,11485.0,49.0,50.0,50.0,48.0,10.9399995803833,10.90999984741211,11.100000381469727,11.170000076293945,6.241158485412598,-21.376779556274414,,-0.7649187,-0.4511058999999989,9.0025047,0.012360217049717903,0.02743459492921831,0.13675899803638458,340.54,-0.05840602144598961,0.14049944281578064,1.8554794788360596,0.9737720489501953,9.640646934509277,2.7648913860321045
11114.0,12051.0,10542.0,11485.0,49.0,50.0,50.0,48.0,10.9399995803833,10.90999984741211,11.100000381469727,11.170000076293945,11.091270446777344,-24.269084930419922,,-0.7649187,-0.4511058999999989,9.0025047,0.012360217049717903,0.02743459492921831,0.13675899803638458,339.74,-0.05840602144598961,0.14049944281578064,1.8554794788360596,0.9737720489501953,9.640646934509277,2.7648913860321045
11114.0,12051.0,10542.0,11485.0,49.0,50.0,50.0,48.0,10.9399995803833,10.90999984741211,11.100000381469727,11.170000076293945,7.263917922973633,-20.708526611328125,,-0.7649187,-0.4511058999999989,9.0025047,0.012360217049717903,0.02743459492921831,0.13675899803638458,339.14,-0.06439824402332306,0.025376584380865097,1.914711594581604,0.966789722442627,9.877734184265137,2.772693157196045
11114.0,12051.0,10542.0,11485.0,49.0,50.0,50.0,48.0,10.9399995803833,10.90999984741211,11.100000381469727,11.170000076293945,4.108311176300049,-20.748777389526367,,-0.7649187,-0.4511058999999989,9.0025047,0.012360217049717903,0.02743459492921831,0.13675899803638458,339.14,-0.06439824402332306,0.025376584380865097,1.914711594581604,0.9628162384033203,9.995655059814453,2.782154083251953
11114.0,12051.0,10542.0,11485.0,49.0,50.0,50.0,48.0,10.9399995803833,10.90999984741211,11.100000381469727,11.170000076293945,2.935239315032959,-20.016416549682617,,-0.7649187,-0.4511058999999989,9.0025047,0.012360217049717903,0.02743459492921831,0.13675899803638458,338.81,-0.06439824402332306,0.025376584380865097,1.914711594581604,0.9566396474838257,10.09906005859375,2.78617787361145
11114.0,12051.0,10542.0,11485.0,49.0,50.0,50.0,48.0,10.9399995803833,10.90999984741211,11.100000381469727,11.170000076293945,2.8147504329681396,-19.08098602294922,,-0.7649187,-0.4511058999999989,9.0025047,0.012360217049717903,0.02743459492921831,0.13675899803638458,338.94,-0.06439824402332306,0.025376584380865097,1.914711594581604,0.9566396474838257,10.09906005859375,2.78617787361145
11114.0,12051.0,10542.0,11485.0,49.0,50.0,50.0,48.0,10.9399995803833,10.90999984741211,11.100000381469727,11.170000076293945,2.792052745819092,-18.186635971069336,,-0.7649187,-0.4511058999999989,9.0025047,0.012360217049717903,0.02743459492921831,0.13675899803638458,339.22,-0.06439824402332306,0.025376584380865097,1.914711594581604,0.9492701292037964,10.205825805664062,2.796189546585083
11114.0,12051.0,10542.0,11485.0,49.0,50.0,50.0,48.0,10.9399995803833,10.90999984741211,11.100000381469727,11.170000076293945,2.352766275405884,-15.176576614379883,,-0.7649187,-0.46091254999999887,9.12999115,0.08496005833148956,-0.06291861832141878,-0.06421124935150145,339.22,-0.06439824402332306,0.025376584380865097,1.914711594581604,0.9393783211708069,10.338422775268555,2.8133771419525146
11114.0,12051.0,10542.0,11485.0,49.0,50.0,50.0,48.0,10.9399995803833,10.90999984741211,11.100000381469727,11.170000076293945,1.9890986680984497,-13.072720527648926,,-0.7649187,-0.46091254999999887,9.12999115,0.08496005833148956,-0.06291861832141878,-0.06421124935150145,339.22,-0.06439824402332306,0.025376584380865097,1.914711594581604,0.9393783211708069,10.338422775268555,2.8133771419525146
11596.0,10957.0,10885.0,12671.0,51.0,50.0,49.0,49.0,11.0600004196167,10.90999984741211,10.979999542236328,11.149999618530273,1.5456722974777222,-14.358240127563477,,-0.7649187,-0.46091254999999887,9.12999115,0.08496005833148956,-0.06291861832141878,-0.06421124935150145,340.09,-0.06439824402332306,0.025376584380865097,1.914711594581604,0.9393783211708069,10.338422775268555,2.8133771419525146
11596.0,10957.0,10885.0,12671.0,51.0,50.0,49.0,49.0,11.0600004196167,10.90999984741211,10.979999542236328,11.149999618530273,1.1371785402297974,-15.40332317352295,,-0.7649187,-0.46091254999999887,9.12999115,0.08496005833148956,-0.06291861832141878,-0.06421124935150145,342.22,-0.05647086724638939,0.019585903733968735,1.9306241273880005,0.922518789768219,10.527958869934082,2.8304591178894043
11596.0,10957.0,10885.0,12671.0,51.0,50.0,49.0,49.0,11.0600004196167,10.90999984741211,10.979999542236328,11.149999618530273,0.7649547457695007,-13.472512245178223,,-0.7649187,-0.46091254999999887,9.12999115,0.08496005833148956,-0.06291861832141878,-0.06421124935150145,344.42,-0.05647086724638939,0.019585903733968735,1.9306241273880005,0.9147571921348572,10.610405921936035,2.842331886291504
11596.0,10957.0,10885.0,12671.0,51.0,50.0,49.0,49.0,11.0600004196167,10.90999984741211,10.979999542236328,11.149999618530273,0.46633175015449524,-14.193961143493652,,-0.7649187,-0.46091254999999887,9.12999115,0.08496005833148956,-0.06291861832141878,-0.06421124935150145,344.42,-0.05647086724638939,0.019585903733968735,1.9306241273880005,0.9045441150665283,10.7085542678833,2.8508784770965576
11596.0,10957.0,10885.0,12671.0,51.0,50.0,49.0,49.0,11.0600004196167,10.90999984741211,10.979999542236328,11.149999618530273,0.5428752899169922,-11.925909042358398,,-0.7649187,-0.46091254999999887,9.12999115,0.08496005833148956,-0.06291861832141878,-0.06421124935150145,345.54,-0.05647086724638939,0.019585903733968735,1.9306241273880005,0.9045441150665283,10.7085542678833,2.8508784770965576
11596.0,10957.0,10885.0,12671.0,51.0,50.0,49.0,49.0,11.0600004196167,10.90999984741211,10.979999542236328,11.149999618530273,0.5428752899169922,-11.925909042358398,,-0.7649187,-0.46091254999999887,9.12999115,0.08496005833148956,-0.06291861832141878,-0.06421124935150145,345.73,-0.05647086724638939,0.019585903733968735,1.9306241273880005,0.8885770440101624,10.838648796081543,2.8642430305480957
11596.0,10957.0,10885.0,12671.0,51.0,50.0,49.0,49.0,11.0600004196167,10.90999984741211,10.979999542236328,11.149999618530273,0.9456763863563538,-11.690847396850586,,-0.7060788,-0.4707191999999989,9.14960445,-0.10606566071510315,-0.5236507654190063,0.0648524388670922,345.73,-0.05647086724638939,0.019585903733968735,1.9306241273880005,0.87943434715271,10.917807579040527,2.8757779598236084
10785.0,11828.0,10457.0,12731.0,50.0,49.0,52.0,50.0,11.09000015258789,11.15999984741211,10.90999984741211,10.869999885559082,1.3677936792373657,-10.966429710388184,,-0.7060788,-0.4707191999999989,9.14960445,-0.10606566071510315,-0.5236507654190063,0.0648524388670922,345.82,-0.05647086724638939,0.019585903733968735,1.9306241273880005,0.87943434715271,10.917807579040527,2.8757779598236084
10785.0,11828.0,10457.0,12731.0,50.0,49.0,52.0,50.0,11.09000015258789,11.15999984741211,10.90999984741211,10.869999885559082,0.7555295825004578,-12.455978393554688,,-0.7060788,-0.4707191999999989,9.14960445,-0.10606566071510315,-0.5236507654190063,0.0648524388670922,345.82,-0.05911674723029137,-0.062387146055698395,1.8197121620178223,0.8545528054237366,11.075711250305176,2.8841702938079834
10785.0,11828.0,10457.0,12731.0,50.0,49.0,52.0,50.0,11.09000015258789,11.15999984741211,10.90999984741211,10.869999885559082,0.7156097292900085,-12.326346397399902,,-0.7060788,-0.4707191999999989,9.14960445,-0.10606566071510315,-0.5236507654190063,0.0648524388670922,345.87,-0.05911674723029137,-0.062387146055698395,1.8197121620178223,0.8545528054237366,11.075711250305176,2.8841702938079834
10785.0,11828.0,10457.0,12731.0,50.0,49.0,52.0,50.0,11.09000015258789,11.15999984741211,10.90999984741211,10.869999885559082,2.094327211380005,-14.288470268249512,,-0.7060788,-0.4707191999999989,9.14960445,-0.10606566071510315,-0.5236507654190063,0.0648524388670922,345.81,-0.05911674723029137,-0.062387146055698395,1.8197121620178223,0.8445437550544739,11.131477355957031,2.8910303115844727
10785.0,11828.0,10457.0,12731.0,50.0,49.0,52.0,50.0,11.09000015258789,11.15999984741211,10.90999984741211,10.869999885559082,2.2420971393585205,-14.895410537719727,,-0.7060788,-0.4707191999999989,9.14960445,-0.10606566071510315,-0.5236507654190063,0.0648524388670922,346.41,-0.05911674723029137,-0.062387146055698395,1.8197121620178223,0.832006573677063,11.197867393493652,2.894057512283325
10785.0,11828.0,10457.0,12731.0,50.0,49.0,52.0,50.0,11.09000015258789,11.15999984741211,10.90999984741211,10.869999885559082,2.2420971393585205,-14.895410537719727,,-0.7060788,-0.4707191999999989,9.14960445,-0.10606566071510315,-0.5236507654190063,0.0648524388670922,347.3,-0.05911674723029137,-0.062387146055698395,1.8197121620178223,0.8222095966339111,11.251822471618652,2.8967652320861816
10785.0,11828.0,10457.0,12731.0,50.0,49.0,52.0,50.0,11.09000015258789,11.15999984741211,10.90999984741211,10.869999885559082,2.2752389907836914,-17.3682861328125,,-0.7060788,-0.4707191999999989,9.14960445,-0.10606566071510315,-0.5236507654190063,0.0648524388670922,347.3,-0.05911674723029137,-0.062387146055698395,1.8197121620178223,0.8222095966339111,11.251822471618652,2.8967652320861816
10785.0,11828.0,10457.0,12731.0,50.0,49.0,52.0,50.0,11.09000015258789,11.15999984741211,10.90999984741211,10.869999885559082,1.6731971502304077,-19.1925106048584,,-0.4903325,-0.4511058999999989,9.2574776,-0.010549018159508705,0.19713172316551208,-0.07007368654012683,347.3,-0.05911674723029137,-0.062387146055698395,1.8197121620178223,0.8127414584159851,11.301945686340332,2.901942014694214
12885.0,10742.0,11142.0,11371.0,49.0,52.0,52.0,50.0,11.119999885559082,11.029999732971191,10.789999961853027,10.90999984741211,0.1502092033624649,-14.384308815002441,,-0.4903325,-0.4511058999999989,9.2574776,-0.010549018159508705,0.19713172316551208,-0.07007368654012683,348.15,-0.05911674723029137,-0.062387146055698395,1.8197121620178223,0.8127414584159851,11.301945686340332,2.901942014694214
12885.0,10742.0,11142.0,11371.0,49.0,52.0,52.0,50.0,11.119999885559082,11.029999732971191,10.789999961853027,10.90999984741211,0.1502092033624649,-14.384308815002441,,-0.4903325,-0.4511058999999989,9.2574776,-0.010549018159508705,0.19713172316551208,-0.07007368654012683,348.72,-0.04610858112573624,-0.07334589958190918,1.7875109910964966,0.7962595224380493,11.36475944519043,2.89847731590271
12885.0,10742.0,11142.0,11371.0,49.0,52.0,52.0,50.0,11.119999885559082,11.029999732971191,10.789999961853027,10.90999984741211,-1.2046998739242554,-10.302800178527832,,-0.4903325,-0.4511058999999989,9.2574776,-0.010549018159508705,0.19713172316551208,-0.07007368654012683,348.72,-0.04610858112573624,-0.07334589958190918,1.7875109910964966,0.7962595224380493,11.36475944519043,2.89847731590271
12885.0,10742.0,11142.0,11371.0,49.0,52.0,52.0,50.0,11.119999885559082,11.029999732971191,10.789999961853027,10.90999984741211,-0.8848636150360107,-6.445843696594238,,-0.4903325,-0.4511058999999989,9.2574776,-0.010549018159508705,0.19713172316551208,-0.07007368654012683,348.66,-0.04610858112573624,-0.07334589958190918,1.7875109910964966,0.784225583076477,11.405123710632324,2.8976752758026123
12885.0,10742.0,11142.0,11371.0,49.0,52.0,52.0,50.0,11.119999885559082,11.029999732971191,10.789999961853027,10.90999984741211,-0.685864269733429,-4.1691694259643555,,-0.4903325,-0.4511058999999989,9.2574776,-0.010549018159508705,0.19713172316551208,-0.07007368654012683,347.77,-0.04610858112573624,-0.07334589958190918,1.7875109910964966,0.7779170870780945,11.43557357788086,2.891317367553711
12885.0,10742.0,11142.0,11371.0,49.0,52.0,52.0,50.0,11.119999885559082,11.029999732971191,10.789999961853027,10.90999984741211,-2.213381290435791,-3.5485548973083496,,-0.4903325,-0.4511058999999989,9.2574776,-0.010549018159508705,0.19713172316551208,-0.07007368654012683,346.92,-0.04610858112573624,-0.07334589958190918,1.7875109910964966,0.7731922268867493,11.46601390838623,2.8843231201171875
12885.0,10742.0,11142.0,11371.0,49.0,52.0,52.0,50.0,11.119999885559082,11.029999732971191,10.789999961853027,10.90999984741211,-2.7892887592315674,-2.8871054649353027,,-0.48052585000000003,-0.46091254999999887,9.36535075,-0.1407652050256729,0.16825348138809204,0.09504274278879164,346.92,-0.04610858112573624,-0.07334589958190918,1.7875109910964966,0.771165668964386,11.495253562927246,2.8776938915252686
11142.0,12273.0,11942.0,11100.0,50.0,49.0,49.0,50.0,10.920000076293945,11.5,11.119999885559082,10.960000038146973,-4.191031455993652,-2.4464972019195557,,-0.48052585000000003,-0.46091254999999887,9.36535075,-0.1407652050256729,0.16825348138809204,0.09504274278879164,346.92,-0.04610858112573624,-0.07334589958190918,1.7875109910964966,0.771165668964386,11.495253562927246,2.8776938915252686
11142.0,12273.0,11942.0,11100.0,50.0,49.0,49.0,50.0,10.920000076293945,11.5,11.119999885559082,10.960000038146973,-4.523329257965088,-0.8844775557518005,,-0.48052585000000003,-0.46091254999999887,9.36535075,-0.1407652050256729,0.16825348138809204,0.09504274278879164,346.5,-0.04610858112573624,-0.07334589958190918,1.7875109910964966,0.771165668964386,11.495253562927246,2.8776938915252686
11142.0,12273.0,11942.0,11100.0,50.0,49.0,49.0,50.0,10.920000076293945,11.5,11.119999885559082,10.960000038146973,-4.523329257965088,-0.8844775557518005,,-0.48052585000000003,-0.46091254999999887,9.36535075,-0.1407652050256729,0.16825348138809204,0.09504274278879164,346.51,-0.040550753474235535,-0.004504750482738018,1.8027757406234741,0.771587073802948,11.546250343322754,2.8562614917755127
11142.0,12273.0,11942.0,11100.0,50.0,49.0,49.0,50.0,10.920000076293945,11.5,11.119999885559082,10.960000038146973,-1.57827889919281,0.5655966997146606,,-0.48052585000000003,-0.46091254999999887,9.36535075,-0.1407652050256729,0.16825348138809204,0.09504274278879164,346.51,-0.040550753474235535,-0.004504750482738018,1.8027757406234741,0.7728108167648315,11.565081596374512,2.8475661277770996
11142.0,12273.0,11942.0,11100.0,50.0,49.0,49.0,50.0,10.920000076293945,11.5,11.119999885559082,10.960000038146973,0.7617635726928711,0.9937847852706909,,-0.48052585000000003,-0.46091254999999887,9.36535075,-0.1407652050256729,0.16825348138809204,0.09504274278879164,346.8,-0.040550753474235535,-0.004504750482738018,1.8027757406234741,0.7728108167648315,11.565081596374512,2.8475661277770996
11142.0,12273.0,11942.0,11100.0,50.0,49.0,49.0,50.0,10.920000076293945,11.5,11.119999885559082,10.960000038146973,1.6827634572982788,0.0799328163266182,,-0.48052585000000003,-0.46091254999999887,9.36535075,-0.1407652050256729,0.16825348138809204,0.09504274278879164,347.23,-0.040550753474235535,-0.004504750482738018,1.8027757406234741,0.7719029784202576,11.578038215637207,2.8381669521331787
11142.0,12273.0,11942.0,11100.0,50.0,49.0,49.0,50.0,10.920000076293945,11.5,11.119999885559082,10.960000038146973,1.3324800729751587,-0.8192389607429504,,-0.48052585000000003,-0.46091254999999887,9.36535075,-0.1407652050256729,0.16825348138809204,0.09504274278879164,347.45,-0.040550753474235535,-0.004504750482738018,1.8027757406234741,0.7724166512489319,11.590239524841309,2.8293044567108154
11142.0,12273.0,11942.0,11100.0,50.0,49.0,49.0,50.0,10.920000076293945,11.5,11.119999885559082,10.960000038146973,1.3324800729751587,-0.8192389607429504,,-0.48052585000000003,-0.46091254999999887,9.36535075,-0.1407652050256729,0.16825348138809204,0.09504274278879164,347.45,-0.040550753474235535,-0.004504750482738018,1.8027757406234741,0.7747846245765686,11.601664543151855,2.8201324939727783
11142.0,12273.0,11942.0,11100.0,50.0,49.0,49.0,50.0,10.920000076293945,11.5,11.119999885559082,10.960000038146973,-0.1222383975982666,-2.833759307861328,,-0.4118793,-0.49033249999999884,9.463417250000001,-0.03131723031401634,0.06767389178276062,0.00547627266496419,347.45,-0.040550753474235535,-0.004504750482738018,1.8027757406234741,0.7747846245765686,11.601664543151855,2.8201324939727783
11142.0,11093.0,11157.0,12028.0,50.0,50.0,50.0,49.0,10.890000343322754,10.989999771118164,10.9399995803833,11.149999618530273,-0.7473028302192688,-3.6190972328186035,,-0.4118793,-0.49033249999999884,9.463417250000001,-0.03131723031401634,0.06767389178276062,0.00547627266496419,347.6,-0.040550753474235535,-0.004504750482738018,1.8027757406234741,0.7747846245765686,11.601664543151855,2.8201324939727783
11142.0,11093.0,11157.0,12028.0,50.0,50.0,50.0,49.0,10.890000343322754,10.989999771118164,10.9399995803833,11.149999618530273,-2.1028544902801514,-3.172588586807251,,-0.4118793,-0.49033249999999884,9.463417250000001,-0.03131723031401634,0.06767389178276062,0.00547627266496419,347.5,-0.022789906710386276,-0.01745106279850006,1.7890669107437134,0.7796105146408081,11.615442276000977,2.805253267288208
11142.0,11093.0,11157.0,12028.0,50.0,50.0,50.0,49.0,10.890000343322754,10.989999771118164,10.9399995803833,11.149999618530273,-2.0785744190216064,-2.240917205810547,,-0.4118793,-0.49033249999999884,9.463417250000001,-0.03131723031401634,0.06767389178276062,0.00547627266496419,347.0,-0.022789906710386276,-0.01745106279850006,1.7890669107437134,0.783947765827179,11.619498252868652,2.799129009246826
11142.0,11093.0,11157.0,12028.0,50.0,50.0,50.0,49.0,10.890000343322754,10.989999771118164,10.9399995803833,11.149999618530273,-1.4605460166931152,-1.5219172239303589,,-0.4118793,-0.49033249999999884,9.463417250000001,-0.03131723031401634,0.06767389178276062,0.00547627266496419,346.29,-0.022789906710386276,-0.01745106279850006,1.7890669107437134,0.7878227829933167,11.622461318969727,2.7928919792175293
11142.0,11093.0,11157.0,12028.0,50.0,50.0,50.0,49.0,10.890000343322754,10.989999771118164,10.9399995803833,11.149999618530273,0.24408939480781555,-0.5449039936065674,,-0.4118793,-0.49033249999999884,9.463417250000001,-0.03131723031401634,0.06767389178276062,0.00547627266496419,346.29,-0.022789906710386276,-0.01745106279850006,1.7890669107437134,0.7935234904289246,11.62508773803711,2.7865946292877197
11142.0,11093.0,11157.0,12028.0,50.0,50.0,50.0,49.0,10.890000343322754,10.989999771118164,10.9399995803833,11.149999618530273,0.7059927582740784,0.18487483263015747,,-0.4118793,-0.49033249999999884,9.463417250000001,-0.03131723031401634,0.06767389178276062,0.00547627266496419,345.54,-0.022789906710386276,-0.01745106279850006,1.7890669107437134,0.7935234904289246,11.62508773803711,2.7865946292877197
11142.0,11093.0,11157.0,12028.0,50.0,50.0,50.0,49.0,10.890000343322754,10.989999771118164,10.9399995803833,11.149999618530273,-0.08610261231660843,1.683037519454956,,-0.36284605000000003,-0.39226599999999884,9.4339973,-0.15496598184108734,0.1765333414077759,0.146487221121788,345.54,-0.022789906710386276,-0.01745106279850006,1.7890669107437134,0.8010812401771545,11.628801345825195,2.7793118953704834
12143.0,11471.0,12785.0,11585.0,50.0,50.0,49.0,49.0,10.8100004196167,10.739999771118164,11.050000190734863,10.670000076293945,-0.7222011685371399,2.398261547088623,,-0.36284605000000003,-0.39226599999999884,9.4339973,-0.15496598184108734,0.1765333414077759,0.146487221121788,344.89,-0.022789906710386276,-0.01745106279850006,1.7890669107437134,0.8010812401771545,11.628801345825195,2.7793118953704834
12143.0,11471.0,12785.0,11585.0,50.0,50.0,49.0,49.0,10.8100004196167,10.739999771118164,11.050000190734863,10.670000076293945,-1.5444697141647339,4.25214958190918,,-0.36284605000000003,-0.39226599999999884,9.4339973,-0.15496598184108734,0.1765333414077759,0.146487221121788,344.89,-0.04220402613282204,0.07263850420713425,1.8273091316223145,0.8085927367210388,11.641124725341797,2.7715160846710205
12143.0,11471.0,12785.0,11585.0,50.0,50.0,49.0,49.0,10.8100004196167,10.739999771118164,11.050000190734863,10.670000076293945,-0.17622795701026917,5.380187034606934,,-0.36284605000000003,-0.39226599999999884,9.4339973,-0.15496598184108734,0.1765333414077759,0.146487221121788,344.42,-0.04220402613282204,0.07263850420713425,1.8273091316223145,0.8085927367210388,11.641124725341797,2.7715160846710205
12143.0,11471.0,12785.0,11585.0,50.0,50.0,49.0,49.0,10.8100004196167,10.739999771118164,11.050000190734863,10.670000076293945,0.8964859843254089,4.7924065589904785,,-0.36284605000000003,-0.39226599999999884,9.4339973,-0.15496598184108734,0.1765333414077759,0.146487221121788,344.42,-0.04220402613282204,0.07263850420713425,1.8273091316223145,0.812480628490448,11.653895378112793,2.766916036605835
12143.0,11471.0,12785.0,11585.0,50.0,50.0,49.0,49.0,10.8100004196167,10.739999771118164,11.050000190734863,10.670000076293945,2.199047803878784,4.309863090515137,,-0.36284605000000003,-0.39226599999999884,9.4339973,-0.15496598184108734,0.1765333414077759,0.146487221121788,344.21,-0.04220402613282204,0.07263850420713425,1.8273091316223145,0.812480628490448,11.653895378112793,2.766916036605835
12143.0,11471.0,12785.0,11585.0,50.0,50.0,49.0,49.0,10.8100004196167,10.739999771118164,11.050000190734863,10.670000076293945,1.0277780294418335,2.612785577774048,,-0.36284605000000003,-0.39226599999999884,9.4339973,-0.15496598184108734,0.1765333414077759,0.146487221121788,343.96,-0.04220402613282204,0.07263850420713425,1.8273091316223145,0.8138047456741333,11.674140930175781,2.762772798538208
12143.0,11471.0,12785.0,11585.0,50.0,50.0,49.0,49.0,10.8100004196167,10.739999771118164,11.050000190734863,10.670000076293945,-0.8216910362243652,-0.16297398507595062,,-0.36284605000000003,-0.39226599999999884,9.4339973,-0.15496598184108734,0.1765333414077759,0.146487221121788,344.0,-0.04220402613282204,0.07263850420713425,1.8273091316223145,0.8160616755485535,11.689647674560547,2.7624151706695557
12143.0,11471.0,12785.0,11585.0,50.0,50.0,49.0,49.0,10.8100004196167,10.739999771118164,11.050000190734863,10.670000076293945,-0.9629950523376465,-1.569604754447937,,-0.38245935,-0.37265269999999884,9.40457735,-0.06729354709386826,-0.3357682526111603,-0.06293118745088573,344.0,-0.04220402613282204,0.07263850420713425,1.8273091316223145,0.8182388544082642,11.704584121704102,2.763094425201416
11277.0,11457.0,11328.0,10928.0,49.0,50.0,50.0,49.0,10.960000038146973,10.979999542236328,10.609999656677246,10.920000076293945,-0.6831068396568298,-2.4658360481262207,,-0.38245935,-0.37265269999999884,9.40457735,-0.06729354709386826,-0.3357682526111603,-0.06293118745088573,344.1,-0.04220402613282204,0.07263850420713425,1.8273091316223145,0.8182388544082642,11.704584121704102,2.763094425201416
11277.0,11457.0,11328.0,10928.0,49.0,50.0,50.0,49.0,10.960000038146973,10.979999542236328,10.609999656677246,10.920000076293945,-0.19661499559879303,-3.118912935256958,,-0.38245935,-0.37265269999999884,9.40457735,-0.06729354709386826,-0.3357682526111603,-0.06293118745088573,344.1,-0.03739010542631149,0.01018270943313837,1.849007248878479,0.8223040103912354,11.729022979736328,2.7657759189605713
11277.0,11457.0,11328.0,10928.0,49.0,50.0,50.0,49.0,10.960000038146973,10.979999542236328,10.609999656677246,10.920000076293945,1.3914270401000977,-7.593211650848389,,-0.38245935,-0.37265269999999884,9.40457735,-0.06729354709386826,-0.3357682526111603,-0.06293118745088573,344.14,-0.03739010542631149,0.01018270943313837,1.849007248878479,0.8223040103912354,11.729022979736328,2.7657759189605713
11277.0,11457.0,11328.0,10928.0,49.0,50.0,50.0,49.0,10.960000038146973,10.979999542236328,10.609999656677246,10.920000076293945,1.7689605951309204,-7.315476894378662,,-0.38245935,-0.37265269999999884,9.40457735,-0.06729354709386826,-0.3357682526111603,-0.06293118745088573,344.16,-0.03739010542631149,0.01018270943313837,1.849007248878479,0.8279097080230713,11.741663932800293,2.767437696456909
11277.0,11457.0,11328.0,10928.0,49.0,50.0,50.0,49.0,10.960000038146973,10.979999542236328,10.609999656677246,10.920000076293945,1.3887604475021362,-6.715478897094727,,-0.38245935,-0.37265269999999884,9.40457735,-0.06729354709386826,-0.3357682526111603,-0.06293118745088573,344.06,-0.03739010542631149,0.01018270943313837,1.849007248878479,0.8332149982452393,11.750320434570312,2.7631661891937256
11277.0,11457.0,11328.0,10928.0,49.0,50.0,50.0,49.0,10.960000038146973,10.979999542236328,10.609999656677246,10.920000076293945,0.6995273232460022,-5.84547233581543,,-0.38245935,-0.37265269999999884,9.40457735,-0.06729354709386826,-0.3357682526111603,-0.06293118745088573,344.06,-0.03739010542631149,0.01018270943313837,1.849007248878479,0.8400721549987793,11.754280090332031,2.762526273727417
11277.0,11457.0,11328.0,10928.0,49.0,50.0,50.0,49.0,10.960000038146973,10.979999542236328,10.609999656677246,10.920000076293945,0.054957181215286255,-4.741387844085693,,-0.3726527,-0.3530393999999989,9.28689755,-0.06677281111478806,0.23475997149944305,0.08635701984167096,344.06,-0.03739010542631149,0.01018270943313837,1.849007248878479,0.8400721549987793,11.754280090332031,2.762526273727417
11871.0,10971.0,11100.0,11142.0,49.0,50.0,53.0,49.0,11.039999961853027,10.890000343322754,10.079999923706055,11.0,0.08378562331199646,-3.7853682041168213,,-0.3726527,-0.3530393999999989,9.28689755,-0.06677281111478806,0.23475997149944305,0.08635701984167096,343.68,-0.03739010542631149,0.01018270943313837,1.849007248878479,0.8400721549987793,11.754280090332031,2.762526273727417
11871.0,10971.0,11100.0,11142.0,49.0,50.0,53.0,49.0,11.039999961853027,10.890000343322754,10.079999923706055,11.0,0.18372327089309692,-2.7320189476013184,,-0.3726527,-0.3530393999999989,9.28689755,-0.06677281111478806,0.23475997149944305,0.08635701984167096,343.68,-0.04513809457421303,0.005797223653644323,1.850767970085144,0.8433979749679565,11.754094123840332,2.761080026626587
11871.0,10971.0,11100.0,11142.0,49.0,50.0,53.0,49.0,11.039999961853027,10.890000343322754,10.079999923706055,11.0,0.6543071866035461,-1.7676504850387573,,-0.3726527,-0.3530393999999989,9.28689755,-0.06677281111478806,0.23475997149944305,0.08635701984167096,343.68,-0.04513809457421303,0.005797223653644323,1.850767970085144,0.8433979749679565,11.754094123840332,2.761080026626587
11871.0,10971.0,11100.0,11142.0,49.0,50.0,53.0,49.0,11.039999961853027,10.890000343322754,10.079999923706055,11.0,2.0500705242156982,-0.5262833833694458,,-0.3726527,-0.3530393999999989,9.28689755,-0.06677281111478806,0.23475997149944305,0.08635701984167096,343.42,-0.04513809457421303,0.005797223653644323,1.850767970085144,0.8475673198699951,11.751940727233887,2.761103868484497
11871.0,10971.0,11100.0,11142.0,49.0,50.0,53.0,49.0,11.039999961853027,10.890000343322754,10.079999923706055,11.0,1.919512391090393,0.607662558555603,,-0.3726527,-0.3530393999999989,9.28689755,-0.06677281111478806,0.23475997149944305,0.08635701984167096,343.64,-0.04513809457421303,0.005797223653644323,1.850767970085144,0.8495129942893982,11.751312255859375,2.7636232376098633
11871.0,10971.0,11100.0,11142.0,49.0,50.0,53.0,49.0,11.039999961853027,10.890000343322754,10.079999923706055,11.0,1.375536561012268,1.7382090091705322,,-0.3726527,-0.3530393999999989,9.28689755,-0.06677281111478806,0.23475997149944305,0.08635701984167096,343.74,-0.04513809457421303,0.005797223653644323,1.850767970085144,0.8516887426376343,11.751084327697754,2.763828754425049
11871.0,10971.0,11100.0,11142.0,49.0,50.0,53.0,49.0,11.039999961853027,10.890000343322754,10.079999923706055,11.0,0.4260815680027008,2.709047555923462,,-0.38245935,-0.34323274999999887,9.2574776,0.030591316521167755,0.23079036176204681,0.010793217457830878,343.74,-0.04513809457421303,0.005797223653644323,1.850767970085144,0.8558674454689026,11.74960708618164,2.7662205696105957
11871.0,10971.0,11100.0,11142.0,49.0,50.0,53.0,49.0,11.039999961853027,10.890000343322754,10.079999923706055,11.0,0.4260815680027008,2.709047555923462,,-0.38245935,-0.34323274999999887,9.2574776,0.030591316521167755,0.23079036176204681,0.010793217457830878,343.74,-0.04513809457421303,0.005797223653644323,1.850767970085144,0.8558674454689026,11.74960708618164,2.7662205696105957
12014.0,12489.0,10757.0,10900.0,49.0,50.0,49.0,50.0,10.670000076293945,11.020000457763672,10.829999923706055,11.0600004196167,-3.213986396789551,5.038461208343506,,-0.38245935,-0.34323274999999887,9.2574776,0.030591316521167755,0.23079036176204681,0.010793217457830878,343.74,-0.04513809457421303,0.005797223653644323,1.850767970085144,0.8558674454689026,11.74960708618164,2.7662205696105957
12014.0,12489.0,10757.0,10900.0,49.0,50.0,49.0,50.0,10.670000076293945,11.020000457763672,10.829999923706055,11.0600004196167,-3.213986396789551,5.038461208343506,,-0.38245935,-0.34323274999999887,9.2574776,0.030591316521167755,0.23079036176204681,0.010793217457830878,343.31,-0.03793210908770561,0.044658415019512177,1.854943037033081,0.8504734039306641,11.751532554626465,2.7650485038757324
12014.0,12489.0,10757.0,10900.0,49.0,50.0,49.0,50.0,10.670000076293945,11.020000457763672,10.829999923706055,11.0600004196167,-1.618308424949646,2.3421478271484375,,-0.38245935,-0.34323274999999887,9.2574776,0.030591316521167755,0.23079036176204681,0.010793217457830878,343.31,-0.03793210908770561,0.044658415019512177,1.854943037033081,0.8477723002433777,11.754223823547363,2.764448404312134
12014.0,12489.0,10757.0,10900.0,49.0,50.0,49.0,50.0,10.670000076293945,11.020000457763672,10.829999923706055,11.0600004196167,0.7279649376869202,0.5973333120346069,,-0.38245935,-0.34323274999999887,9.2574776,0.030591316521167755,0.23079036176204681,0.010793217457830878,342.97,-0.03793210908770561,0.044658415019512177,1.854943037033081,0.8477723002433777,11.754223823547363,2.764448404312134
12014.0,12489.0,10757.0,10900.0,49.0,50.0,49.0,50.0,10.670000076293945,11.020000457763672,10.829999923706055,11.0600004196167,0.8589830994606018,4.414714813232422,,-0.38245935,-0.34323274999999887,9.2574776,0.030591316521167755,0.23079036176204681,0.010793217457830878,342.87,-0.03793210908770561,0.044658415019512177,1.854943037033081,0.8454822301864624,11.763782501220703,2.7633743286132812
12014.0,12489.0,10757.0,10900.0,49.0,50.0,49.0,50.0,10.670000076293945,11.020000457763672,10.829999923706055,11.0600004196167,-0.36468395590782166,8.703125953674316,,-0.38245935,-0.34323274999999887,9.2574776,0.030591316521167755,0.23079036176204681,0.010793217457830878,342.51,-0.03793210908770561,0.044658415019512177,1.854943037033081,0.8431776762008667,11.781982421875,2.7605197429656982
12014.0,12489.0,10757.0,10900.0,49.0,50.0,49.0,50.0,10.670000076293945,11.020000457763672,10.829999923706055,11.0600004196167,-0.36468395590782166,8.703125953674316,,-0.38245935,-0.34323274999999887,9.2574776,0.030591316521167755,0.23079036176204681,0.010793217457830878,342.51,-0.03793210908770561,0.044658415019512177,1.854943037033081,0.8400604128837585,11.812482833862305,2.7589504718780518
12014.0,12489.0,10757.0,10900.0,49.0,50.0,49.0,50.0,10.670000076293945,11.020000457763672,10.829999923706055,11.0600004196167,-2.7776079177856445,10.755139350891113,,-0.3334261,-0.33342609999999884,9.414384,0.021370742470026016,0.3006569445133209,0.0726835578680038,342.51,-0.03793210908770561,0.044658415019512177,1.854943037033081,0.8400604128837585,11.812482833862305,2.7589504718780518
11271.0,12166.0,11528.0,11385.0,50.0,50.0,50.0,52.0,10.869999885559082,11.010000228881836,11.010000228881836,10.960000038146973,-5.0413818359375,11.933000564575195,,-0.3334261,-0.33342609999999884,9.414384,0.021370742470026016,0.3006569445133209,0.0726835578680038,342.51,-0.03793210908770561,0.044658415019512177,1.854943037033081,0.8400604128837585,11.812482833862305,2.7589504718780518
11271.0,12166.0,11528.0,11385.0,50.0,50.0,50.0,52.0,10.869999885559082,11.010000228881836,11.010000228881836,10.960000038146973,-5.616945743560791,13.343886375427246,,-0.3334261,-0.33342609999999884,9.414384,0.021370742470026016,0.3006569445133209,0.0726835578680038,341.98,-0.020819950848817825,0.2674481272697449,1.8777828216552734,0.821402907371521,11.90042495727539,2.7545337677001953
11271.0,12166.0,11528.0,11385.0,50.0,50.0,50.0,52.0,10.869999885559082,11.010000228881836,11.010000228881836,10.960000038146973,-1.8569806814193726,11.89304256439209,,-0.3334261,-0.33342609999999884,9.414384,0.021370742470026016,0.3006569445133209,0.0726835578680038,341.98,-0.020819950848817825,0.2674481272697449,1.8777828216552734,0.8111070990562439,11.946503639221191,2.7530746459960938
11271.0,12166.0,11528.0,11385.0,50.0,50.0,50.0,52.0,10.869999885559082,11.010000228881836,11.010000228881836,10.960000038146973,1.0582606792449951,13.128576278686523,,-0.3334261,-0.33342609999999884,9.414384,0.021370742470026016,0.3006569445133209,0.0726835578680038,341.91,-0.020819950848817825,0.2674481272697449,1.8777828216552734,0.8111070990562439,11.946503639221191,2.7530746459960938
11271.0,12166.0,11528.0,11385.0,50.0,50.0,50.0,52.0,10.869999885559082,11.010000228881836,11.010000228881836,10.960000038146973,0.12130394577980042,8.09743881225586,,-0.3334261,-0.33342609999999884,9.414384,0.021370742470026016,0.3006569445133209,0.0726835578680038,342.02,-0.020819950848817825,0.2674481272697449,1.8777828216552734,0.7972337603569031,12.017138481140137,2.74855375289917
11271.0,12166.0,11528.0,11385.0,50.0,50.0,50.0,52.0,10.869999885559082,11.010000228881836,11.010000228881836,10.960000038146973,0.12130394577980042,8.09743881225586,,-0.3334261,-0.33342609999999884,9.414384,0.021370742470026016,0.3006569445133209,0.0726835578680038,342.07,-0.020819950848817825,0.2674481272697449,1.8777828216552734,0.7835903763771057,12.084147453308105,2.744597911834717
11271.0,12166.0,11528.0,11385.0,50.0,50.0,50.0,52.0,10.869999885559082,11.010000228881836,11.010000228881836,10.960000038146973,0.3431238532066345,1.7784368991851807,,-0.53936575,-0.3236194499999988,9.4928372,0.019783865660429,-0.13191522657871246,0.02761212736368181,342.07,-0.020819950848817825,0.2674481272697449,1.8777828216552734,0.7626367211341858,12.183109283447266,2.7429277896881104
11465.0,12528.0,12657.0,11214.0,49.0,49.0,49.0,50.0,11.380000114440918,10.710000038146973,11.079999923706055,10.460000038146973,1.3068361282348633,-3.431345224380493,,-0.53936575,-0.3236194499999988,9.4928372,0.019783865660429,-0.13191522657871246,0.02761212736368181,341.84,-0.020819950848817825,0.2674481272697449,1.8777828216552734,0.7626367211341858,12.183109283447266,2.7429277896881104
11465.0,12528.0,12657.0,11214.0,49.0,49.0,49.0,50.0,11.380000114440918,10.710000038146973,11.079999923706055,10.460000038146973,2.648796796798706,-8.00298023223877,,-0.53936575,-0.3236194499999988,9.4928372,0.019783865660429,-0.13191522657871246,0.02761212736368181,341.84,-0.03185644745826721,0.19873130321502686,1.8844352960586548,0.727374255657196,12.343038558959961,2.738952159881592
11465.0,12528.0,12657.0,11214.0,49.0,49.0,49.0,50.0,11.380000114440918,10.710000038146973,11.079999923706055,10.460000038146973,3.500054121017456,-11.193901062011719,,-0.53936575,-0.3236194499999988,9.4928372,0.019783865660429,-0.13191522657871246,0.02761212736368181,341.33,-0.03185644745826721,0.19873130321502686,1.8844352960586548,0.727374255657196,12.343038558959961,2.738952159881592
11465.0,12528.0,12657.0,11214.0,49.0,49.0,49.0,50.0,11.380000114440918,10.710000038146973,11.079999923706055,10.460000038146973,3.0879838466644287,-10.881874084472656,,-0.53936575,-0.3236194499999988,9.4928372,0.019783865660429,-0.13191522657871246,0.02761212736368181,340.95,-0.03185644745826721,0.19873130321502686,1.8844352960586548,0.7085593342781067,12.425928115844727,2.7396163940429688
11465.0,12528.0,12657.0,11214.0,49.0,49.0,49.0,50.0,11.380000114440918,10.710000038146973,11.079999923706055,10.460000038146973,2.4250144958496094,-10.381632804870605,,-0.53936575,-0.3236194499999988,9.4928372,0.019783865660429,-0.13191522657871246,0.02761212736368181,340.64,-0.03185644745826721,0.19873130321502686,1.8844352960586548,0.6817933320999146,12.5443115234375,2.740372896194458
11465.0,12528.0,12657.0,11214.0,49.0,49.0,49.0,50.0,11.380000114440918,10.710000038146973,11.079999923706055,10.460000038146973,1.5562934875488281,-11.681313514709473,,-0.53936575,-0.3236194499999988,9.4928372,0.019783865660429,-0.13191522657871246,0.02761212736368181,340.64,-0.03185644745826721,0.19873130321502686,1.8844352960586548,0.6452470421791077,12.701043128967285,2.7442827224731445
11465.0,12528.0,12657.0,11214.0,49.0,49.0,49.0,50.0,11.380000114440918,10.710000038146973,11.079999923706055,10.460000038146973,1.307574987411499,-11.492592811584473,,-0.53936575,-0.3236194499999988,9.4928372,0.019783865660429,-0.13191522657871246,0.02761212736368181,340.49,-0.03185644745826721,0.19873130321502686,1.8844352960586548,0.6452470421791077,12.701043128967285,2.7442827224731445
11465.0,12528.0,12657.0,11214.0,49.0,49.0,49.0,50.0,11.380000114440918,10.710000038146973,11.079999923706055,10.460000038146973,1.307574987411499,-11.492592811584473,,-0.6472389000000001,-0.33342609999999884,9.4339973,-0.029368380084633827,-0.20938637852668762,0.014686038717627551,340.49,-0.03185644745826721,0.19873130321502686,1.8844352960586548,0.613706648349762,12.830536842346191,2.749229907989502
10857.0,12557.0,12471.0,10906.0,54.0,49.0,51.0,50.0,10.979999542236328,11.170000076293945,11.119999885559082,10.989999771118164,2.135746717453003,-10.982844352722168,,-0.6472389000000001,-0.33342609999999884,9.4339973,-0.029368380084633827,-0.20938637852668762,0.014686038717627551,340.54,-0.03185644745826721,0.19873130321502686,1.8844352960586548,0.613706648349762,12.830536842346191,2.749229907989502
10857.0,12557.0,12471.0,10906.0,54.0,49.0,51.0,50.0,10.979999542236328,11.170000076293945,11.119999885559082,10.989999771118164,2.741549491882324,-11.247747421264648,,-0.6472389000000001,-0.33342609999999884,9.4339973,-0.029368380084633827,-0.20938637852668762,0.014686038717627551,340.43,-0.030654970556497574,0.20650556683540344,1.9112094640731812,0.5531994700431824,13.086334228515625,2.7626750469207764
10857.0,12557.0,12471.0,10906.0,54.0,49.0,51.0,50.0,10.979999542236328,11.170000076293945,11.119999885559082,10.989999771118164,2.710270881652832,-13.453241348266602,,-0.6472389000000001,-0.33342609999999884,9.4339973,-0.029368380084633827,-0.20938637852668762,0.014686038717627551,340.43,-0.030654970556497574,0.20650556683540344,1.9112094640731812,0.5199113488197327,13.21960163116455,2.771690607070923
10857.0,12557.0,12471.0,10906.0,54.0,49.0,51.0,50.0,10.979999542236328,11.170000076293945,11.119999885559082,10.989999771118164,2.937190055847168,-15.799222946166992,,-0.6472389000000001,-0.33342609999999884,9.4339973,-0.029368380084633827,-0.20938637852668762,0.014686038717627551,339.98,-0.030654970556497574,0.20650556683540344,1.9112094640731812,0.5199113488197327,13.21960163116455,2.771690607070923
10857.0,12557.0,12471.0,10906.0,54.0,49.0,51.0,50.0,10.979999542236328,11.170000076293945,11.119999885559082,10.989999771118164,2.937190055847168,-15.799222946166992,,-0.6472389000000001,-0.33342609999999884,9.4339973,-0.029368380084633827,-0.20938637852668762,0.014686038717627551,339.68,-0.030654970556497574,0.20650556683540344,1.9112094640731812,0.47640174627304077,13.3905611038208,2.783712863922119
10857.0,12557.0,12471.0,10906.0,54.0,49.0,51.0,50.0,10.979999542236328,11.170000076293945,11.119999885559082,10.989999771118164,4.049205780029297,-18.164216995239258,,-0.6472389000000001,-0.33342609999999884,9.4339973,-0.029368380084633827,-0.20938637852668762,0.014686038717627551,339.57,-0.030654970556497574,0.20650556683540344,1.9112094640731812,0.44426727294921875,13.519780158996582,2.7929306030273438
10857.0,12557.0,12471.0,10906.0,54.0,49.0,51.0,50.0,10.979999542236328,11.170000076293945,11.119999885559082,10.989999771118164,4.135589599609375,-20.262731552124023,,-0.6864655,-0.3334260999999989,9.1201845,-0.03362569957971573,0.09665293991565704,0.02532566711306571,339.57,-0.030654970556497574,0.20650556683540344,1.9112094640731812,0.4033210277557373,13.678498268127441,2.805295467376709
10857.0,12557.0,12471.0,10906.0,54.0,49.0,51.0,50.0,10.979999542236328,11.170000076293945,11.119999885559082,10.989999771118164,3.577317476272583,-21.26694107055664,,-0.6864655,-0.3334260999999989,9.1201845,-0.03362569957971573,0.09665293991565704,0.02532566711306571,339.57,-0.030654970556497574,0.20650556683540344,1.9112094640731812,0.4033210277557373,13.678498268127441,2.805295467376709
10314.0,12200.0,12128.0,10385.0,50.0,49.0,49.0,50.0,11.0,11.079999923706055,11.119999885559082,11.010000228881836,3.1362783908843994,-18.238893508911133,,-0.6864655,-0.3334260999999989,9.1201845,-0.03362569957971573,0.09665293991565704,0.02532566711306571,339.56,-0.030654970556497574,0.20650556683540344,1.9112094640731812,0.4033210277557373,13.678498268127441,2.805295467376709
10314.0,12200.0,12128.0,10385.0,50.0,49.0,49.0,50.0,11.0,11.079999923706055,11.119999885559082,11.010000228881836,2.8590807914733887,-15.877958297729492,,-0.6864655,-0.3334260999999989,9.1201845,-0.03362569957971573,0.09665293991565704,0.02532566711306571,339.56,-0.037514299154281616,0.1773964911699295,1.9277490377426147,0.33770886063575745,13.911812782287598,2.817502021789551
10314.0,12200.0,12128.0,10385.0,50.0,49.0,49.0,50.0,11.0,11.079999923706055,11.119999885559082,11.010000228881836,2.8590807914733887,-15.877958297729492,,-0.6864655,-0.3334260999999989,9.1201845,-0.03362569957971573,0.09665293991565704,0.02532566711306571,339.93,-0.037514299154281616,0.1773964911699295,1.9277490377426147,0.2666168212890625,14.15379524230957,2.833129405975342
10314.0,12200.0,12128.0,10385.0,50.0,49.0,49.0,50.0,11.0,11.079999923706055,11.119999885559082,11.010000228881836,2.301602602005005,-18.70393180847168,,-0.6864655,-0.3334260999999989,9.1201845,-0.03362569957971573,0.09665293991565704,0.02532566711306571,340.99,-0.037514299154281616,0.1773964911699295,1.9277490377426147,0.2666168212890625,14.15379524230957,2.833129405975342
10314.0,12200.0,12128.0,10385.0,50.0,49.0,49.0,50.0,11.0,11.079999923706055,11.119999885559082,11.010000228881836,2.219424247741699,-16.706684112548828,,-0.6864655,-0.3334260999999989,9.1201845,-0.03362569957971573,0.09665293991565704,0.02532566711306571,343.26,-0.037514299154281616,0.1773964911699295,1.9277490377426147,0.22532141208648682,14.302638053894043,2.841543197631836
10314.0,12200.0,12128.0,10385.0,50.0,49.0,49.0,50.0,11.0,11.079999923706055,11.119999885559082,11.010000228881836,1.892135739326477,-15.86781120300293,,-0.6864655,-0.3334260999999989,9.1201845,-0.03362569957971573,0.09665293991565704,0.02532566711306571,346.79,-0.037514299154281616,0.1773964911699295,1.9277490377426147,0.1822875738143921,14.452354431152344,2.8518710136413574
10314.0,12200.0,12128.0,10385.0,50.0,49.0,49.0,50.0,11.0,11.079999923706055,11.119999885559082,11.010000228881836,1.892135739326477,-15.86781120300293,,-0.79433865,-0.3726526999999989,9.0417313,0.19349753856658936,0.2890956699848174,-0.7779711484909058,346.79,-0.037514299154281616,0.1773964911699295,1.9277490377426147,0.12199721485376358,14.653385162353516,2.8663361072540283
11471.0,11945.0,12728.0,12900.0,54.0,50.0,49.0,50.0,10.859999656677246,10.960000038146973,11.050000190734863,11.149999618530273,2.950847625732422,-18.470727920532227,,-0.79433865,-0.3726526999999989,9.0417313,0.19349753856658936,0.2890956699848174,-0.7779711484909058,346.79,-0.037514299154281616,0.1773964911699295,1.9277490377426147,0.12199721485376358,14.653385162353516,2.8663361072540283
11471.0,11945.0,12728.0,12900.0,54.0,50.0,49.0,50.0,10.859999656677246,10.960000038146973,11.050000190734863,11.149999618530273,4.375104904174805,-20.599626541137695,,-0.79433865,-0.3726526999999989,9.0417313,0.19349753856658936,0.2890956699848174,-0.7779711484909058,350.41,-0.037514299154281616,0.1773964911699295,1.9277490377426147,0.12199721485376358,14.653385162353516,2.8663361072540283
11471.0,11945.0,12728.0,12900.0,54.0,50.0,49.0,50.0,10.859999656677246,10.960000038146973,11.050000190734863,11.149999618530273,3.458650827407837,-16.61793327331543,,-0.79433865,-0.3726526999999989,9.0417313,0.19349753856658936,0.2890956699848174,-0.7779711484909058,352.08,-0.04995233193039894,0.16136866807937622,1.7833878993988037,-0.0034367297776043415,15.033878326416016,2.888223886489868
11471.0,11945.0,12728.0,12900.0,54.0,50.0,49.0,50.0,10.859999656677246,10.960000038146973,11.050000190734863,11.149999618530273,2.074678897857666,-13.334282875061035,,-0.79433865,-0.3726526999999989,9.0417313,0.19349753856658936,0.2890956699848174,-0.7779711484909058,352.08,-0.04995233193039894,0.16136866807937622,1.7833878993988037,-0.061294570565223694,15.20887565612793,2.9002859592437744
11471.0,11945.0,12728.0,12900.0,54.0,50.0,49.0,50.0,10.859999656677246,10.960000038146973,11.050000190734863,11.149999618530273,0.7838119268417358,-10.602415084838867,,-0.79433865,-0.3726526999999989,9.0417313,0.19349753856658936,0.2890956699848174,-0.7779711484909058,352.88,-0.04995233193039894,0.16136866807937622,1.7833878993988037,-0.061294570565223694,15.20887565612793,2.9002859592437744
11471.0,11945.0,12728.0,12900.0,54.0,50.0,49.0,50.0,10.859999656677246,10.960000038146973,11.050000190734863,11.149999618530273,-0.7648846507072449,-9.268533706665039,,-0.79433865,-0.3726526999999989,9.0417313,0.19349753856658936,0.2890956699848174,-0.7779711484909058,352.86,-0.04995233193039894,0.16136866807937622,1.7833878993988037,-0.1093905046582222,15.351340293884277,2.909053325653076
11471.0,11945.0,12728.0,12900.0,54.0,50.0,49.0,50.0,10.859999656677246,10.960000038146973,11.050000190734863,11.149999618530273,-2.156468152999878,-10.666043281555176,,-0.79433865,-0.3726526999999989,9.0417313,0.19349753856658936,0.2890956699848174,-0.7779711484909058,352.86,-0.04995233193039894,0.16136866807937622,1.7833878993988037,-0.17175012826919556,15.539678573608398,2.920654058456421
11471.0,11945.0,12728.0,12900.0,54.0,50.0,49.0,50.0,10.859999656677246,10.960000038146973,11.050000190734863,11.149999618530273,-3.000305414199829,-10.670867919921875,,-0.79433865,-0.3726526999999989,9.0417313,0.19349753856658936,0.2890956699848174,-0.7779711484909058,352.34,-0.04995233193039894,0.16136866807937622,1.7833878993988037,-0.17175012826919556,15.539678573608398,2.920654058456421
11471.0,11945.0,12728.0,12900.0,54.0,50.0,49.0,50.0,10.859999656677246,10.960000038146973,11.050000190734863,11.149999618530273,-2.9326655864715576,-13.508262634277344,,-0.8237586,-0.5295590999999988,9.0613446,0.09265483915805817,0.10961698740720749,0.04618546739220618,352.34,-0.04995233193039894,0.16136866807937622,1.7833878993988037,-0.25431254506111145,15.793319702148438,2.9367008209228516
11814.0,13000.0,12171.0,11800.0,50.0,50.0,49.0,49.0,11.09000015258789,10.960000038146973,11.100000381469727,11.119999885559082,-1.9779492616653442,-16.512292861938477,,-0.8237586,-0.5295590999999988,9.0613446,0.09265483915805817,0.10961698740720749,0.04618546739220618,352.19,-0.04995233193039894,0.16136866807937622,1.7833878993988037,-0.25431254506111145,15.793319702148438,2.9367008209228516
