m1_rpm,m2_rpm,m3_rpm,m4_rpm,temp_m1,temp_m2,temp_m3,temp_m4,volt_m1,volt_m2,volt_m3,volt_m4,x_camera,y_camera,Altitude,linear_acceleration_x,linear_acceleration_y,linear_acceleration_z,angular_velocity_x,angular_velocity_y,angular_velocity_z,compass,roll,pitch,yaw,x_gps,y_gps,z_gps
12185.0,12528.0,12100.0,12600.0,44.0,44.0,44.0,44.0,11.34000015258789,11.329999923706055,10.960000038146973,11.3100004196167,4.226169586181641,-17.365785598754883,,-0.5687857000000001,-0.2157462999999989,9.0809579,0.009821481071412563,0.061916947364807136,0.06312299519777297,342.66,0.001725851558148861,0.08632992953062057,1.846696376800537,0.1582901030778885,4.892078399658203,2.117612600326538
12207.0,12528.0,12528.0,12263.0,44.0,44.0,46.0,45.0,11.4399995803833,11.34000015258789,11.300000190734863,11.319999694824219,4.226169586181641,-17.365785598754883,,-0.5687857000000001,-0.2157462999999989,9.0809579,0.009821481071412563,0.061916947364807136,0.06312299519777297,342.66,0.001725851558148861,0.08632992953062057,1.846696376800537,0.1582901030778885,4.892078399658203,2.117612600326538
12207.0,12528.0,12528.0,12263.0,44.0,44.0,46.0,45.0,11.4399995803833,11.34000015258789,11.300000190734863,11.319999694824219,4.226169586181641,-17.365785598754883,,-0.5687857000000001,-0.2157462999999989,9.0809579,0.009821481071412563,0.061916947364807136,0.06312299519777297,342.5,0.001725851558148861,0.08632992953062057,1.846696376800537,0.1582901030778885,4.892078399658203,2.117612600326538
12207.0,12528.0,12528.0,12263.0,44.0,44.0,46.0,45.0,11.4399995803833,11.34000015258789,11.300000190734863,11.319999694824219,3.7982521057128906,-13.410306930541992,,-0.5687857000000001,-0.2157462999999989,9.0809579,0.009821481071412563,0.061916947364807136,0.06312299519777297,342.29,0.0018072668462991714,0.21704496443271637,1.8736870288848877,0.22258146107196808,5.236025333404541,2.1406774520874023
12207.0,12528.0,12528.0,12263.0,44.0,44.0,46.0,45.0,11.4399995803833,11.34000015258789,11.300000190734863,11.319999694824219,3.7982521057128906,-13.410306930541992,,-0.5687857000000001,-0.2157462999999989,9.0809579,0.009821481071412563,0.061916947364807136,0.06312299519777297,342.29,0.0018072668462991714,0.21704496443271637,1.8736870288848877,0.26297685503959656,5.525315761566162,2.1593406200408936
12207.0,12528.0,12528.0,12263.0,44.0,44.0,46.0,45.0,11.4399995803833,11.34000015258789,11.300000190734863,11.319999694824219,1.7375291585922241,-12.910249710083008,,-0.5687857000000001,-0.2157462999999989,9.0809579,0.009821481071412563,0.061916947364807136,0.06312299519777297,342.47,0.0018072668462991714,0.21704496443271637,1.8736870288848877,0.26297685503959656,5.525315761566162,2.1593406200408936
12207.0,12528.0,12528.0,12263.0,44.0,44.0,46.0,45.0,11.4399995803833,11.34000015258789,11.300000190734863,11.319999694824219,1.7375291585922241,-12.910249710083008,,-0.5687857000000001,-0.2157462999999989,9.0809579,0.009821481071412563,0.061916947364807136,0.06312299519777297,343.08,0.0018072668462991714,0.21704496443271637,1.8736870288848877,0.3333774209022522,5.856500625610352,2.186530113220215
12207.0,12528.0,12528.0,12263.0,44.0,44.0,46.0,45.0,11.4399995803833,11.34000015258789,11.300000190734863,11.319999694824219,1.7375291585922241,-12.910249710083008,,-0.5687857000000001,-0.2157462999999989,9.0809579,0.009821481071412563,0.061916947364807136,0.06312299519777297,343.08,0.0018072668462991714,0.21704496443271637,1.8736870288848877,0.38613447546958923,6.19932746887207,2.2134885787963867
12207.0,12528.0,12528.0,12263.0,44.0,44.0,46.0,45.0,11.4399995803833,11.34000015258789,11.300000190734863,11.319999694824219,0.7389816045761108,-10.454266548156738,,-0.77472535,-0.24516624999999886,9.44380395,-0.1536673605442047,-0.26415297389030457,-0.0905693098902702,343.78,0.0018072668462991714,0.21704496443271637,1.8736870288848877,0.38613447546958923,6.19932746887207,2.2134885787963867
12614.0,12585.0,12212.0,12555.0,44.0,44.0,46.0,45.0,11.380000114440918,11.329999923706055,11.40999984741211,11.869999885559082,1.6861259937286377,-12.537175178527832,,-0.77472535,-0.24516624999999886,9.44380395,-0.1536673605442047,-0.26415297389030457,-0.0905693098902702,343.78,0.0018072668462991714,0.21704496443271637,1.8736870288848877,0.4574699103832245,6.544482707977295,2.248286247253418
12614.0,12585.0,12212.0,12555.0,44.0,44.0,44.0,48.0,11.380000114440918,11.329999923706055,11.40999984741211,11.869999885559082,1.6861259937286377,-12.537175178527832,,-0.77472535,-0.24516624999999886,9.44380395,-0.1536673605442047,-0.26415297389030457,-0.0905693098902702,343.99,5.6947581470012665e-05,0.1607428640127182,1.853591799736023,0.5256989002227783,6.89457893371582,2.284475088119507
12614.0,12585.0,12212.0,12555.0,44.0,44.0,44.0,48.0,11.380000114440918,11.329999923706055,11.40999984741211,11.869999885559082,1.6748018264770508,-12.609283447265625,,-0.77472535,-0.24516624999999886,9.44380395,-0.1536673605442047,-0.26415297389030457,-0.0905693098902702,343.99,5.6947581470012665e-05,0.1607428640127182,1.853591799736023,0.5256989002227783,6.89457893371582,2.284475088119507
12614.0,12585.0,12212.0,12555.0,44.0,44.0,44.0,48.0,11.380000114440918,11.329999923706055,11.40999984741211,11.869999885559082,2.515692710876465,-13.072439193725586,,-0.77472535,-0.24516624999999886,9.44380395,-0.1536673605442047,-0.26415297389030457,-0.0905693098902702,340.62,5.6947581470012665e-05,0.1607428640127182,1.853591799736023,0.5852924585342407,7.248922348022461,2.3228919506073
12614.0,12585.0,12212.0,12555.0,44.0,44.0,44.0,48.0,11.380000114440918,11.329999923706055,11.40999984741211,11.869999885559082,2.515692710876465,-13.072439193725586,,-0.77472535,-0.24516624999999886,9.44380395,-0.1536673605442047,-0.26415297389030457,-0.0905693098902702,340.62,5.6947581470012665e-05,0.1607428640127182,1.853591799736023,0.6626635789871216,7.612216949462891,2.3633971214294434
12614.0,12585.0,12212.0,12555.0,44.0,44.0,44.0,48.0,11.380000114440918,11.329999923706055,11.40999984741211,11.869999885559082,8.11219310760498,-20.55628204345703,,-0.77472535,-0.24516624999999886,9.44380395,-0.1536673605442047,-0.26415297389030457,-0.0905693098902702,340.53,5.6947581470012665e-05,0.1607428640127182,1.853591799736023,0.6626635789871216,7.612216949462891,2.3633971214294434
12614.0,12585.0,12212.0,12555.0,44.0,44.0,44.0,48.0,11.380000114440918,11.329999923706055,11.40999984741211,11.869999885559082,8.476178169250488,-24.06377410888672,,-0.77472535,-0.24516624999999886,9.44380395,-0.1536673605442047,-0.26415297389030457,-0.0905693098902702,340.21,5.6947581470012665e-05,0.1607428640127182,1.853591799736023,0.7237681150436401,7.979077339172363,2.40238094329834
12614.0,12585.0,12212.0,12555.0,44.0,44.0,44.0,48.0,11.380000114440918,11.329999923706055,11.40999984741211,11.869999885559082,7.1139140129089355,-26.59309196472168,,-0.7060788,-0.2745861999999989,9.1790244,-0.012227189727127552,-0.016941480338573452,0.02760156244039536,340.21,5.6947581470012665e-05,0.1607428640127182,1.853591799736023,0.7897456884384155,8.350494384765625,2.449589729309082
10942.0,12464.0,12237.0,12513.0,45.0,44.0,44.0,44.0,11.15999984741211,11.449999809265137,11.329999923706055,10.479999542236328,7.1139140129089355,-26.59309196472168,,-0.7060788,-0.2745861999999989,9.1790244,-0.012227189727127552,-0.016941480338573452,0.02760156244039536,340.21,5.6947581470012665e-05,0.1607428640127182,1.853591799736023,0.7897456884384155,8.350494384765625,2.449589729309082
10942.0,12464.0,12237.0,12513.0,45.0,44.0,44.0,44.0,11.15999984741211,11.449999809265137,11.329999923706055,10.479999542236328,4.714206218719482,-27.9985408782959,,-0.7060788,-0.2745861999999989,9.1790244,-0.012227189727127552,-0.016941480338573452,0.02760156244039536,338.92,5.6947581470012665e-05,0.1607428640127182,1.853591799736023,0.7897456884384155,8.350494384765625,2.449589729309082
10942.0,12464.0,12237.0,12513.0,45.0,44.0,44.0,44.0,11.15999984741211,11.449999809265137,11.329999923706055,10.479999542236328,3.6501123905181885,-29.2611026763916,,-0.7060788,-0.2745861999999989,9.1790244,-0.012227189727127552,-0.016941480338573452,0.02760156244039536,338.92,0.002891071140766144,0.18063656985759735,1.9169813394546509,0.884509265422821,8.845297813415527,2.5132558345794678
10942.0,12464.0,12237.0,12513.0,45.0,44.0,44.0,44.0,11.15999984741211,11.449999809265137,11.329999923706055,10.479999542236328,2.958359479904175,-29.245553970336914,,-0.7060788,-0.2745861999999989,9.1790244,-0.012227189727127552,-0.016941480338573452,0.02760156244039536,338.03,0.002891071140766144,0.18063656985759735,1.9169813394546509,0.884509265422821,8.845297813415527,2.5132558345794678
10942.0,12464.0,12237.0,12513.0,45.0,44.0,44.0,44.0,11.15999984741211,11.449999809265137,11.329999923706055,10.479999542236328,2.958359479904175,-29.245553970336914,,-0.7060788,-0.2745861999999989,9.1790244,-0.012227189727127552,-0.016941480338573452,0.02760156244039536,338.06,0.002891071140766144,0.18063656985759735,1.9169813394546509,0.972528874874115,9.343863487243652,2.57137131690979
10942.0,12464.0,12237.0,12513.0,45.0,44.0,44.0,44.0,11.15999984741211,11.449999809265137,11.329999923706055,10.479999542236328,5.600509166717529,-27.131013870239258,,-0.7060788,-0.2745861999999989,9.1790244,-0.012227189727127552,-0.016941480338573452,0.02760156244039536,338.8,0.002891071140766144,0.18063656985759735,1.9169813394546509,1.0313348770141602,9.67436408996582,2.6099026203155518
10942.0,12464.0,12237.0,12513.0,45.0,44.0,44.0,44.0,11.15999984741211,11.449999809265137,11.329999923706055,10.479999542236328,8.736706733703613,-28.41631507873535,,-0.7060788,-0.2745861999999989,9.1790244,-0.012227189727127552,-0.016941480338573452,0.02760156244039536,340.28,0.002891071140766144,0.18063656985759735,1.9169813394546509,1.0751914978027344,9.946812629699707,2.636133909225464
10942.0,12464.0,12237.0,12513.0,45.0,44.0,44.0,44.0,11.15999984741211,11.449999809265137,11.329999923706055,10.479999542236328,11.533610343933105,-32.01763153076172,,-0.9414384,-0.27458619999999884,9.4536106,-0.14776110649108887,-0.6935031414031982,-0.17856888473033897,340.28,0.002891071140766144,0.18063656985759735,1.9169813394546509,1.137324333190918,10.286576271057129,2.6751492023468018
11320.0,10714.0,12559.0,12051.0,45.0,44.0,44.0,44.0,11.15999984741211,11.449999809265137,11.329999923706055,10.479999542236328,10.682028770446777,-30.8684024810791,,-0.9414384,-0.27458619999999884,9.4536106,-0.14776110649108887,-0.6935031414031982,-0.17856888473033897,340.28,0.002891071140766144,0.18063656985759735,1.9169813394546509,1.137324333190918,10.286576271057129,2.6751492023468018
11320.0,10714.0,12559.0,12051.0,45.0,48.0,44.0,44.0,11.069999694824219,11.100000381469727,11.319999694824219,11.40999984741211,11.704559326171875,-36.43037414550781,,-0.9414384,-0.27458619999999884,9.4536106,-0.14776110649108887,-0.6935031414031982,-0.17856888473033897,342.11,0.002891071140766144,0.18063656985759735,1.9169813394546509,1.137324333190918,10.286576271057129,2.6751492023468018
11320.0,10714.0,12559.0,12051.0,45.0,48.0,44.0,44.0,11.069999694824219,11.100000381469727,11.319999694824219,11.40999984741211,14.588319778442383,-38.6009635925293,,-0.9414384,-0.27458619999999884,9.4536106,-0.14776110649108887,-0.6935031414031982,-0.17856888473033897,343.16,-0.002148951403796673,-0.0010735155083239079,1.9138808250427246,1.2337557077407837,10.814258575439453,2.733877420425415
11320.0,10714.0,12559.0,12051.0,45.0,48.0,44.0,44.0,11.069999694824219,11.100000381469727,11.319999694824219,11.40999984741211,11.747427940368652,-40.0588493347168,,-0.9414384,-0.27458619999999884,9.4536106,-0.14776110649108887,-0.6935031414031982,-0.17856888473033897,342.89,-0.002148951403796673,-0.0010735155083239079,1.9138808250427246,1.3158023357391357,11.23145580291748,2.791308879852295
11320.0,10714.0,12559.0,12051.0,45.0,48.0,44.0,44.0,11.069999694824219,11.100000381469727,11.319999694824219,11.40999984741211,9.26078987121582,-36.559425354003906,,-0.9414384,-0.27458619999999884,9.4536106,-0.14776110649108887,-0.6935031414031982,-0.17856888473033897,341.95,-0.002148951403796673,-0.0010735155083239079,1.9138808250427246,1.3763368129730225,11.536412239074707,2.832582950592041
11320.0,10714.0,12559.0,12051.0,45.0,48.0,44.0,44.0,11.069999694824219,11.100000381469727,11.319999694824219,11.40999984741211,7.507380485534668,-33.74567413330078,,-0.9414384,-0.27458619999999884,9.4536106,-0.14776110649108887,-0.6935031414031982,-0.17856888473033897,343.18,-0.002148951403796673,-0.0010735155083239079,1.9138808250427246,1.431678056716919,11.804760932922363,2.870926856994629
11320.0,10714.0,12559.0,12051.0,45.0,48.0,44.0,44.0,11.069999694824219,11.100000381469727,11.319999694824219,11.40999984741211,5.5380401611328125,-36.363189697265625,,-0.9414384,-0.27458619999999884,9.4536106,-0.14776110649108887,-0.6935031414031982,-0.17856888473033897,343.18,-0.002148951403796673,-0.0010735155083239079,1.9138808250427246,1.485893964767456,12.122455596923828,2.919903516769409
10771.0,11014.0,11200.0,12117.0,45.0,48.0,44.0,44.0,11.069999694824219,11.100000381469727,11.319999694824219,11.40999984741211,3.3995165824890137,-32.46790313720703,,-0.7256921000000001,-0.30400614999999886,9.3359308,-0.04507256671786308,-0.13722723722457886,0.003974489867687242,343.18,-0.002148951403796673,-0.0010735155083239079,1.9138808250427246,1.485893964767456,12.122455596923828,2.919903516769409
10771.0,11014.0,11200.0,12117.0,45.0,45.0,45.0,44.0,10.729999542236328,11.210000038146973,11.1899995803833,11.40999984741211,1.315658450126648,-33.301185607910156,,-0.7256921000000001,-0.30400614999999886,9.3359308,-0.04507256671786308,-0.13722723722457886,0.003974489867687242,346.41,-0.002148951403796673,-0.0010735155083239079,1.9138808250427246,1.485893964767456,12.122455596923828,2.919903516769409
10771.0,11014.0,11200.0,12117.0,45.0,45.0,45.0,44.0,10.729999542236328,11.210000038146973,11.1899995803833,11.40999984741211,1.315658450126648,-33.301185607910156,,-0.7256921000000001,-0.30400614999999886,9.3359308,-0.04507256671786308,-0.13722723722457886,0.003974489867687242,347.4,0.00178423710167408,-0.03348369896411896,1.8626524209976196,1.570884108543396,12.727025032043457,3.0114598274230957
10771.0,11014.0,11200.0,12117.0,45.0,45.0,45.0,44.0,10.729999542236328,11.210000038146973,11.1899995803833,11.40999984741211,0.05086493119597435,-28.358238220214844,,-0.7256921000000001,-0.30400614999999886,9.3359308,-0.04507256671786308,-0.13722723722457886,0.003974489867687242,346.92,0.00178423710167408,-0.03348369896411896,1.8626524209976196,1.5946905612945557,12.946977615356445,3.0497658252716064
10771.0,11014.0,11200.0,12117.0,45.0,45.0,45.0,44.0,10.729999542236328,11.210000038146973,11.1899995803833,11.40999984741211,-0.46547478437423706,-29.723833084106445,,-0.7256921000000001,-0.30400614999999886,9.3359308,-0.04507256671786308,-0.13722723722457886,0.003974489867687242,346.92,0.00178423710167408,-0.03348369896411896,1.8626524209976196,1.5946905612945557,12.946977615356445,3.0497658252716064
10771.0,11014.0,11200.0,12117.0,45.0,45.0,45.0,44.0,10.729999542236328,11.210000038146973,11.1899995803833,11.40999984741211,1.6776021718978882,-32.506568908691406,,-0.7256921000000001,-0.30400614999999886,9.3359308,-0.04507256671786308,-0.13722723722457886,0.003974489867687242,345.58,0.00178423710167408,-0.03348369896411896,1.8626524209976196,1.622488021850586,13.1765775680542,3.083953857421875
10771.0,11014.0,11200.0,12117.0,45.0,45.0,45.0,44.0,10.729999542236328,11.210000038146973,11.1899995803833,11.40999984741211,1.9922890663146973,-32.21582794189453,,-0.7256921000000001,-0.30400614999999886,9.3359308,-0.04507256671786308,-0.13722723722457886,0.003974489867687242,344.51,0.00178423710167408,-0.03348369896411896,1.8626524209976196,1.6477174758911133,13.435750961303711,3.12686824798584
10771.0,11014.0,11200.0,12117.0,45.0,45.0,45.0,44.0,10.729999542236328,11.210000038146973,11.1899995803833,11.40999984741211,1.458738923072815,-31.76559066772461,,-0.6472389000000001,-0.2353595999999989,9.1594111,0.05628690868616104,0.0819022655487061,0.3886663615703583,344.51,0.00178423710167408,-0.03348369896411896,1.8626524209976196,1.6705676317214966,13.727317810058594,3.1648104190826416
12028.0,11430.0,10685.0,12014.0,44.0,44.0,45.0,44.0,11.329999923706055,11.420000076293945,11.15999984741211,11.4399995803833,0.07586073130369186,-30.412097930908203,,-0.6472389000000001,-0.2353595999999989,9.1594111,0.05628690868616104,0.0819022655487061,0.3886663615703583,343.97,0.00178423710167408,-0.03348369896411896,1.8626524209976196,1.6705676317214966,13.727317810058594,3.1648104190826416
12028.0,11430.0,10685.0,12014.0,44.0,44.0,45.0,44.0,11.329999923706055,11.420000076293945,11.15999984741211,11.4399995803833,0.07586073130369186,-30.412097930908203,,-0.6472389000000001,-0.2353595999999989,9.1594111,0.05628690868616104,0.0819022655487061,0.3886663615703583,343.18,0.006797533016651869,-0.004720920696854591,1.8415199518203735,1.6999804973602295,14.160968780517578,3.213468313217163
12028.0,11430.0,10685.0,12014.0,44.0,44.0,45.0,44.0,11.329999923706055,11.420000076293945,11.15999984741211,11.4399995803833,0.06527801603078842,-30.558263778686523,,-0.6472389000000001,-0.2353595999999989,9.1594111,0.05628690868616104,0.0819022655487061,0.3886663615703583,343.18,0.006797533016651869,-0.004720920696854591,1.8415199518203735,1.7178972959518433,14.376679420471191,3.2361302375793457
12028.0,11430.0,10685.0,12014.0,44.0,44.0,45.0,44.0,11.329999923706055,11.420000076293945,11.15999984741211,11.4399995803833,-0.1760755330324173,-27.126201629638672,,-0.6472389000000001,-0.2353595999999989,9.1594111,0.05628690868616104,0.0819022655487061,0.3886663615703583,342.68,0.006797533016651869,-0.004720920696854591,1.8415199518203735,1.7296253442764282,14.639484405517578,3.2619779109954834
12028.0,11430.0,10685.0,12014.0,44.0,44.0,45.0,44.0,11.329999923706055,11.420000076293945,11.15999984741211,11.4399995803833,-0.17856299877166748,-24.76516342163086,,-0.6472389000000001,-0.2353595999999989,9.1594111,0.05628690868616104,0.0819022655487061,0.3886663615703583,342.21,0.006797533016651869,-0.004720920696854591,1.8415199518203735,1.7296253442764282,14.639484405517578,3.2619779109954834
12028.0,11430.0,10685.0,12014.0,44.0,44.0,45.0,44.0,11.329999923706055,11.420000076293945,11.15999984741211,11.4399995803833,0.5992646813392639,-29.018014907836914,,-0.6472389000000001,-0.2353595999999989,9.1594111,0.05628690868616104,0.0819022655487061,0.3886663615703583,342.21,0.006797533016651869,-0.004720920696854591,1.8415199518203735,1.7504503726959229,14.936039924621582,3.291208267211914
12028.0,11430.0,10685.0,12014.0,44.0,44.0,45.0,44.0,11.329999923706055,11.420000076293945,11.15999984741211,11.4399995803833,0.5992646813392639,-29.018014907836914,,-0.6472389000000001,-0.2353595999999989,9.1594111,0.05628690868616104,0.0819022655487061,0.3886663615703583,342.09,0.006797533016651869,-0.004720920696854591,1.8415199518203735,1.7504503726959229,14.936039924621582,3.291208267211914
12028.0,11430.0,10685.0,12014.0,44.0,44.0,45.0,44.0,11.329999923706055,11.420000076293945,11.15999984741211,11.4399995803833,0.7962232828140259,-27.07825469970703,,-0.57859235,-0.26477954999999886,9.218251,0.06721927970647812,-0.21289496123790738,0.11445542424917224,342.09,0.006797533016651869,-0.004720920696854591,1.8415199518203735,1.7614315748214722,15.23558235168457,3.3181231021881104
11128.0,12549.0,12594.0,12358.0,46.0,44.0,44.0,44.0,11.170000076293945,11.329999923706055,11.329999923706055,10.979999542236328,0.8907180428504944,-25.242279052734375,,-0.57859235,-0.26477954999999886,9.218251,0.06721927970647812,-0.21289496123790738,0.11445542424917224,342.32,0.006797533016651869,-0.004720920696854591,1.8415199518203735,1.7614315748214722,15.23558235168457,3.3181231021881104
11128.0,12549.0,12594.0,12358.0,46.0,44.0,44.0,44.0,11.170000076293945,11.329999923706055,11.329999923706055,10.979999542236328,1.7698947191238403,-22.702024459838867,,-0.57859235,-0.26477954999999886,9.218251,0.06721927970647812,-0.21289496123790738,0.11445542424917224,342.22,-0.00722732488065958,0.0027617381419986486,1.8832789659500122,1.7821376323699951,15.690977096557617,3.357267141342163
11128.0,12549.0,12594.0,12358.0,46.0,44.0,44.0,44.0,11.170000076293945,11.329999923706055,11.329999923706055,10.979999542236328,2.012268543243408,-21.173221588134766,,-0.57859235,-0.26477954999999886,9.218251,0.06721927970647812,-0.21289496123790738,0.11445542424917224,341.79,-0.00722732488065958,0.0027617381419986486,1.8832789659500122,1.7948216199874878,15.886970520019531,3.3754045963287354
11128.0,12549.0,12594.0,12358.0,46.0,44.0,44.0,44.0,11.170000076293945,11.329999923706055,11.329999923706055,10.979999542236328,0.2477712631225586,-22.00145149230957,,-0.57859235,-0.26477954999999886,9.218251,0.06721927970647812,-0.21289496123790738,0.11445542424917224,341.79,-0.00722732488065958,0.0027617381419986486,1.8832789659500122,1.8057233095169067,16.097131729125977,3.3937602043151855
11128.0,12549.0,12594.0,12358.0,46.0,44.0,44.0,44.0,11.170000076293945,11.329999923706055,11.329999923706055,10.979999542236328,0.2477712631225586,-22.00145149230957,,-0.57859235,-0.26477954999999886,9.218251,0.06721927970647812,-0.21289496123790738,0.11445542424917224,341.17,-0.00722732488065958,0.0027617381419986486,1.8832789659500122,1.8057233095169067,16.097131729125977,3.3937602043151855
11128.0,12549.0,12594.0,12358.0,46.0,44.0,44.0,44.0,11.170000076293945,11.329999923706055,11.329999923706055,10.979999542236328,-0.31160399317741394,-22.552021026611328,,-0.57859235,-0.26477954999999886,9.218251,0.06721927970647812,-0.21289496123790738,0.11445542424917224,340.71,-0.00722732488065958,0.0027617381419986486,1.8832789659500122,1.8318475484848022,16.409088134765625,3.420809030532837
11128.0,12549.0,12594.0,12358.0,46.0,44.0,44.0,44.0,11.170000076293945,11.329999923706055,11.329999923706055,10.979999542236328,-0.31160399317741394,-22.552021026611328,,-0.57859235,-0.26477954999999886,9.218251,0.06721927970647812,-0.21289496123790738,0.11445542424917224,340.71,-0.00722732488065958,0.0027617381419986486,1.8832789659500122,1.8472380638122559,16.628551483154297,3.439645528793335
11128.0,12549.0,12594.0,12358.0,46.0,44.0,44.0,44.0,11.170000076293945,11.329999923706055,11.329999923706055,10.979999542236328,0.39014342427253723,-20.64081573486328,,-0.55897905,-0.2157462999999989,9.012311350000001,-0.29666829109191895,-0.6100592017173767,0.09076658636331565,340.71,-0.00722732488065958,0.0027617381419986486,1.8832789659500122,1.8472380638122559,16.628551483154297,3.439645528793335
11785.0,12244.0,12461.0,11648.0,44.0,44.0,44.0,44.0,11.390000343322754,11.369999885559082,11.420000076293945,11.460000038146973,-0.10460542142391205,-17.098108291625977,,-0.55897905,-0.2157462999999989,9.012311350000001,-0.29666829109191895,-0.6100592017173767,0.09076658636331565,341.01,-0.00722732488065958,0.0027617381419986486,1.8832789659500122,1.8472380638122559,16.628551483154297,3.439645528793335
11785.0,12244.0,12461.0,11648.0,44.0,44.0,44.0,44.0,11.390000343322754,11.369999885559082,11.420000076293945,11.460000038146973,2.1510846614837646,-18.191585540771484,,-0.55897905,-0.2157462999999989,9.012311350000001,-0.29666829109191895,-0.6100592017173767,0.09076658636331565,341.03,-0.07270868867635727,-0.15881074965000153,1.9073749780654907,1.8704817295074463,16.970481872558594,3.4630026817321777
11785.0,12244.0,12461.0,11648.0,44.0,44.0,44.0,44.0,11.390000343322754,11.369999885559082,11.420000076293945,11.460000038146973,4.948001861572266,-23.573925018310547,,-0.55897905,-0.2157462999999989,9.012311350000001,-0.29666829109191895,-0.6100592017173767,0.09076658636331565,341.03,-0.07270868867635727,-0.15881074965000153,1.9073749780654907,1.8868786096572876,17.147369384765625,3.475999116897583
11785.0,12244.0,12461.0,11648.0,44.0,44.0,44.0,44.0,11.390000343322754,11.369999885559082,11.420000076293945,11.460000038146973,4.948001861572266,-23.573925018310547,,-0.55897905,-0.2157462999999989,9.012311350000001,-0.29666829109191895,-0.6100592017173767,0.09076658636331565,341.04,-0.07270868867635727,-0.15881074965000153,1.9073749780654907,1.8868786096572876,17.147369384765625,3.475999116897583
11785.0,12244.0,12461.0,11648.0,44.0,44.0,44.0,44.0,11.390000343322754,11.369999885559082,11.420000076293945,11.460000038146973,5.544833660125732,-27.49848747253418,,-0.55897905,-0.2157462999999989,9.012311350000001,-0.29666829109191895,-0.6100592017173767,0.09076658636331565,340.88,-0.07270868867635727,-0.15881074965000153,1.9073749780654907,1.9016982316970825,17.371381759643555,3.4806370735168457
11785.0,12244.0,12461.0,11648.0,44.0,44.0,44.0,44.0,11.390000343322754,11.369999885559082,11.420000076293945,11.460000038146973,3.9867451190948486,-30.676101684570312,,-0.55897905,-0.2157462999999989,9.012311350000001,-0.29666829109191895,-0.6100592017173767,0.09076658636331565,341.37,-0.07270868867635727,-0.15881074965000153,1.9073749780654907,1.911067247390747,17.50017547607422,3.4840075969696045
11785.0,12244.0,12461.0,11648.0,44.0,44.0,44.0,44.0,11.390000343322754,11.369999885559082,11.420000076293945,11.460000038146973,2.4375181198120117,-29.15386199951172,,-0.3726527,-0.27458619999999884,9.6497436,0.20431393384933472,0.435951828956604,0.13023503124713892,341.37,-0.07270868867635727,-0.15881074965000153,1.9073749780654907,1.9184234142303467,17.64221954345703,3.484259605407715
11328.0,12508.0,12857.0,12631.0,45.0,45.0,44.0,44.0,11.100000381469727,11.329999923706055,11.319999694824219,10.600000381469727,2.4375181198120117,-29.15386199951172,,-0.3726527,-0.27458619999999884,9.6497436,0.20431393384933472,0.435951828956604,0.13023503124713892,341.37,-0.07270868867635727,-0.15881074965000153,1.9073749780654907,1.9184234142303467,17.64221954345703,3.484259605407715
11328.0,12508.0,12857.0,12631.0,45.0,45.0,44.0,44.0,11.100000381469727,11.329999923706055,11.319999694824219,10.600000381469727,3.6217970848083496,-25.228954315185547,,-0.3726527,-0.27458619999999884,9.6497436,0.20431393384933472,0.435951828956604,0.13023503124713892,342.51,-0.07270868867635727,-0.15881074965000153,1.9073749780654907,1.9184234142303467,17.64221954345703,3.484259605407715
11328.0,12508.0,12857.0,12631.0,45.0,45.0,44.0,44.0,11.100000381469727,11.329999923706055,11.319999694824219,10.600000381469727,3.376969575881958,-22.63072967529297,,-0.3726527,-0.27458619999999884,9.6497436,0.20431393384933472,0.435951828956604,0.13023503124713892,342.51,-0.10652490705251694,-0.25322625041007996,1.8953484296798706,1.9328405857086182,17.84741973876953,3.4829506874084473
11328.0,12508.0,12857.0,12631.0,45.0,45.0,44.0,44.0,11.100000381469727,11.329999923706055,11.319999694824219,10.600000381469727,3.376969575881958,-22.63072967529297,,-0.3726527,-0.27458619999999884,9.6497436,0.20431393384933472,0.435951828956604,0.13023503124713892,343.0,-0.10652490705251694,-0.25322625041007996,1.8953484296798706,1.937050223350525,17.97210693359375,3.4739575386047363
11328.0,12508.0,12857.0,12631.0,45.0,45.0,44.0,44.0,11.100000381469727,11.329999923706055,11.319999694824219,10.600000381469727,1.8202048540115356,-16.98631477355957,,-0.3726527,-0.27458619999999884,9.6497436,0.20431393384933472,0.435951828956604,0.13023503124713892,343.15,-0.10652490705251694,-0.25322625041007996,1.8953484296798706,1.937050223350525,17.97210693359375,3.4739575386047363
11328.0,12508.0,12857.0,12631.0,45.0,45.0,44.0,44.0,11.100000381469727,11.329999923706055,11.319999694824219,10.600000381469727,-1.8147943019866943,-11.38996696472168,,-0.3726527,-0.27458619999999884,9.6497436,0.20431393384933472,0.435951828956604,0.13023503124713892,342.47,-0.10652490705251694,-0.25322625041007996,1.8953484296798706,1.9430710077285767,18.04964256286621,3.4652698040008545
11328.0,12508.0,12857.0,12631.0,45.0,45.0,44.0,44.0,11.100000381469727,11.329999923706055,11.319999694824219,10.600000381469727,-4.958244323730469,-7.481139183044434,,-0.3726527,-0.27458619999999884,9.6497436,0.20431393384933472,0.435951828956604,0.13023503124713892,341.81,-0.10652490705251694,-0.25322625041007996,1.8953484296798706,1.9508498907089233,18.112167358398438,3.4590811729431152
11328.0,12508.0,12857.0,12631.0,45.0,45.0,44.0,44.0,11.100000381469727,11.329999923706055,11.319999694824219,10.600000381469727,-4.469304084777832,-4.981712818145752,,-0.1765197,-0.21574629999999886,9.414384,-0.06623649597167969,0.42121383547782904,0.26510906219482416,341.81,-0.10652490705251694,-0.25322625041007996,1.8953484296798706,1.9538789987564087,18.18488121032715,3.4501655101776123
12142.0,12073.0,11421.0,11385.0,45.0,46.0,46.0,45.0,11.09000015258789,11.329999923706055,11.369999885559082,11.1899995803833,-3.395484685897827,-2.644347906112671,,-0.1765197,-0.21574629999999886,9.414384,-0.06623649597167969,0.42121383547782904,0.26510906219482416,341.81,-0.10652490705251694,-0.25322625041007996,1.8953484296798706,1.9538789987564087,18.18488121032715,3.4501655101776123
12142.0,12073.0,11421.0,11385.0,45.0,46.0,46.0,45.0,11.09000015258789,11.329999923706055,11.369999885559082,11.1899995803833,-2.9365272521972656,0.14480060338974,,-0.1765197,-0.21574629999999886,9.414384,-0.06623649597167969,0.42121383547782904,0.26510906219482416,341.6,-0.10652490705251694,-0.25322625041007996,1.8953484296798706,1.9538789987564087,18.18488121032715,3.4501655101776123
12142.0,12073.0,11421.0,11385.0,45.0,46.0,46.0,45.0,11.09000015258789,11.329999923706055,11.369999885559082,11.1899995803833,-1.944212794303894,1.6398320198059082,,-0.1765197,-0.21574629999999886,9.414384,-0.06623649597167969,0.42121383547782904,0.26510906219482416,341.32,-0.04284697771072388,-0.06720539927482605,1.8884918689727783,1.9618875980377197,18.307771682739258,3.43815541267395
12142.0,12073.0,11421.0,11385.0,45.0,46.0,46.0,45.0,11.09000015258789,11.329999923706055,11.369999885559082,11.1899995803833,-0.04871973395347595,3.1381847858428955,,-0.1765197,-0.21574629999999886,9.414384,-0.06623649597167969,0.42121383547782904,0.26510906219482416,341.08,-0.04284697771072388,-0.06720539927482605,1.8884918689727783,1.9671087265014648,18.367298126220703,3.4318172931671143
12142.0,12073.0,11421.0,11385.0,45.0,46.0,46.0,45.0,11.09000015258789,11.329999923706055,11.369999885559082,11.1899995803833,-0.04871973395347595,3.1381847858428955,,-0.1765197,-0.21574629999999886,9.414384,-0.06623649597167969,0.42121383547782904,0.26510906219482416,341.08,-0.04284697771072388,-0.06720539927482605,1.8884918689727783,1.9687995910644531,18.424837112426758,3.4267780780792236
12142.0,12073.0,11421.0,11385.0,45.0,46.0,46.0,45.0,11.09000015258789,11.329999923706055,11.369999885559082,11.1899995803833,1.6500895023345947,1.8564709424972534,,-0.1765197,-0.21574629999999886,9.414384,-0.06623649597167969,0.42121383547782904,0.26510906219482416,340.78,-0.04284697771072388,-0.06720539927482605,1.8884918689727783,1.9720672369003296,18.48243522644043,3.420990467071533
12142.0,12073.0,11421.0,11385.0,45.0,46.0,46.0,45.0,11.09000015258789,11.329999923706055,11.369999885559082,11.1899995803833,0.7198610305786133,-1.0885804891586304,,-0.1765197,-0.21574629999999886,9.414384,-0.06623649597167969,0.42121383547782904,0.26510906219482416,340.26,-0.04284697771072388,-0.06720539927482605,1.8884918689727783,1.9720672369003296,18.48243522644043,3.420990467071533
12142.0,12073.0,11421.0,11385.0,45.0,46.0,46.0,45.0,11.09000015258789,11.329999923706055,11.369999885559082,11.1899995803833,0.4292421340942383,-4.35313081741333,,-0.196133,-0.30400614999999886,9.48303055,-0.10709492862224579,0.15493281185626984,0.10967576503753661,340.26,-0.04284697771072388,-0.06720539927482605,1.8884918689727783,1.981226921081543,18.544477462768555,3.4152841567993164
10871.0,10857.0,11628.0,11342.0,46.0,45.0,45.0,45.0,11.15999984741211,10.359999656677246,10.479999542236328,11.09000015258789,-0.009587995707988739,-7.331527233123779,,-0.196133,-0.30400614999999886,9.48303055,-0.10709492862224579,0.15493281185626984,0.10967576503753661,340.26,-0.04284697771072388,-0.06720539927482605,1.8884918689727783,1.981226921081543,18.544477462768555,3.4152841567993164
10871.0,10857.0,11628.0,11342.0,46.0,45.0,45.0,45.0,11.15999984741211,10.359999656677246,10.479999542236328,11.09000015258789,-0.19536767899990082,-7.095681190490723,,-0.196133,-0.30400614999999886,9.48303055,-0.10709492862224579,0.15493281185626984,0.10967576503753661,339.99,-0.01611275225877762,-0.05788137763738632,1.9158909320831299,2.0087788105010986,18.65757942199707,3.4077529907226562
10871.0,10857.0,11628.0,11342.0,46.0,45.0,45.0,45.0,11.15999984741211,10.359999656677246,10.479999542236328,11.09000015258789,0.7884067296981812,-7.180773735046387,,-0.196133,-0.30400614999999886,9.48303055,-0.10709492862224579,0.15493281185626984,0.10967576503753661,340.15,-0.01611275225877762,-0.05788137763738632,1.9158909320831299,2.0087788105010986,18.65757942199707,3.4077529907226562
10871.0,10857.0,11628.0,11342.0,46.0,45.0,45.0,45.0,11.15999984741211,10.359999656677246,10.479999542236328,11.09000015258789,3.414034128189087,-5.910187721252441,,-0.196133,-0.30400614999999886,9.48303055,-0.10709492862224579,0.15493281185626984,0.10967576503753661,340.38,-0.01611275225877762,-0.05788137763738632,1.9158909320831299,2.0181286334991455,18.702489852905273,3.4052090644836426
10871.0,10857.0,11628.0,11342.0,46.0,45.0,45.0,45.0,11.15999984741211,10.359999656677246,10.479999542236328,11.09000015258789,4.537266731262207,-5.133737087249756,,-0.196133,-0.30400614999999886,9.48303055,-0.10709492862224579,0.15493281185626984,0.10967576503753661,340.82,-0.01611275225877762,-0.05788137763738632,1.9158909320831299,2.0311179161071777,18.75152587890625,3.404391288757324
10871.0,10857.0,11628.0,11342.0,46.0,45.0,45.0,45.0,11.15999984741211,10.359999656677246,10.479999542236328,11.09000015258789,4.659405708312988,-5.124381065368652,,-0.196133,-0.30400614999999886,9.48303055,-0.10709492862224579,0.15493281185626984,0.10967576503753661,340.82,-0.01611275225877762,-0.05788137763738632,1.9158909320831299,2.046213150024414,18.79510498046875,3.403928756713867
10871.0,10857.0,11628.0,11342.0,46.0,45.0,45.0,45.0,11.15999984741211,10.359999656677246,10.479999542236328,11.09000015258789,3.9892640113830566,-5.395027160644531,,-0.196133,-0.30400614999999886,9.48303055,-0.10709492862224579,0.15493281185626984,0.10967576503753661,341.47,-0.01611275225877762,-0.05788137763738632,1.9158909320831299,2.046213150024414,18.79510498046875,3.403928756713867
10871.0,10857.0,11628.0,11342.0,46.0,45.0,45.0,45.0,11.15999984741211,10.359999656677246,10.479999542236328,11.09000015258789,3.50140643119812,-6.914339065551758,,-0.08825985,-0.30400614999999886,9.2967042,-0.1540309190750122,0.00465006614103912,-0.10701657831668854,341.47,-0.01611275225877762,-0.05788137763738632,1.9158909320831299,2.064894199371338,18.851341247558594,3.404860019683838
12357.0,11500.0,11228.0,11781.0,45.0,46.0,45.0,45.0,11.15999984741211,11.079999923706055,11.170000076293945,11.15999984741211,2.626033306121826,-5.743611812591553,,-0.08825985,-0.30400614999999886,9.2967042,-0.1540309190750122,0.00465006614103912,-0.10701657831668854,341.9,-0.01611275225877762,-0.05788137763738632,1.9158909320831299,2.064894199371338,18.851341247558594,3.404860019683838
12357.0,11500.0,11228.0,11781.0,45.0,46.0,45.0,45.0,11.15999984741211,11.079999923706055,11.170000076293945,11.15999984741211,2.416632890701294,-4.406620502471924,,-0.08825985,-0.30400614999999886,9.2967042,-0.1540309190750122,0.00465006614103912,-0.10701657831668854,341.97,-0.033631447702646255,-0.06382036209106445,1.8933542966842651,2.0905022621154785,18.91591453552246,3.4076945781707764
12357.0,11500.0,11228.0,11781.0,45.0,46.0,45.0,45.0,11.15999984741211,11.079999923706055,11.170000076293945,11.15999984741211,4.250555992126465,-4.530252933502197,,-0.08825985,-0.30400614999999886,9.2967042,-0.1540309190750122,0.00465006614103912,-0.10701657831668854,341.74,-0.033631447702646255,-0.06382036209106445,1.8933542966842651,2.1025938987731934,18.948867797851562,3.4087955951690674
12357.0,11500.0,11228.0,11781.0,45.0,46.0,45.0,45.0,11.15999984741211,11.079999923706055,11.170000076293945,11.15999984741211,4.573907852172852,-3.8138229846954346,,-0.08825985,-0.30400614999999886,9.2967042,-0.1540309190750122,0.00465006614103912,-0.10701657831668854,341.74,-0.033631447702646255,-0.06382036209106445,1.8933542966842651,2.1143200397491455,18.973827362060547,3.4112088680267334
12357.0,11500.0,11228.0,11781.0,45.0,46.0,45.0,45.0,11.15999984741211,11.079999923706055,11.170000076293945,11.15999984741211,4.573907852172852,-3.8138229846954346,,-0.08825985,-0.30400614999999886,9.2967042,-0.1540309190750122,0.00465006614103912,-0.10701657831668854,341.74,-0.033631447702646255,-0.06382036209106445,1.8933542966842651,2.1143200397491455,18.973827362060547,3.4112088680267334
12357.0,11500.0,11228.0,11781.0,45.0,46.0,45.0,45.0,11.15999984741211,11.079999923706055,11.170000076293945,11.15999984741211,5.552825927734375,-4.059312343597412,,-0.08825985,-0.30400614999999886,9.2967042,-0.1540309190750122,0.00465006614103912,-0.10701657831668854,340.69,-0.033631447702646255,-0.06382036209106445,1.8933542966842651,2.1352241039276123,19.01233673095703,3.415010690689087
12357.0,11500.0,11228.0,11781.0,45.0,46.0,45.0,45.0,11.15999984741211,11.079999923706055,11.170000076293945,11.15999984741211,5.381866931915283,-3.701847791671753,,-0.08825985,-0.30400614999999886,9.2967042,-0.1540309190750122,0.00465006614103912,-0.10701657831668854,340.69,-0.033631447702646255,-0.06382036209106445,1.8933542966842651,2.144632577896118,19.033727645874023,3.4157674312591553
12357.0,11500.0,11228.0,11781.0,45.0,46.0,45.0,45.0,11.15999984741211,11.079999923706055,11.170000076293945,11.15999984741211,5.512262344360352,-2.5146572589874268,,-0.06864655,-0.30400614999999886,9.12999115,0.004397781565785408,0.1295643150806427,0.10989464819431304,340.69,-0.033631447702646255,-0.06382036209106445,1.8933542966842651,2.144632577896118,19.033727645874023,3.4157674312591553
12357.0,11500.0,11228.0,11781.0,45.0,46.0,45.0,45.0,11.15999984741211,11.079999923706055,11.170000076293945,11.15999984741211,4.786777973175049,-0.6550451517105103,,-0.06864655,-0.30400614999999886,9.12999115,0.004397781565785408,0.1295643150806427,0.10989464819431304,340.43,-0.033631447702646255,-0.06382036209106445,1.8933542966842651,2.144632577896118,19.033727645874023,3.4157674312591553
12357.0,11500.0,11228.0,11781.0,45.0,46.0,45.0,45.0,11.15999984741211,11.079999923706055,11.170000076293945,11.15999984741211,3.2211227416992188,0.33660775423049927,,-0.06864655,-0.30400614999999886,9.12999115,0.004397781565785408,0.1295643150806427,0.10989464819431304,340.59,-0.048874080181121826,-0.009852549992501736,1.9092354774475098,2.1640186309814453,19.079051971435547,3.4169607162475586
12357.0,11500.0,11228.0,11781.0,45.0,46.0,45.0,45.0,11.15999984741211,11.079999923706055,11.170000076293945,11.15999984741211,3.4277119636535645,1.5601166486740112,,-0.06864655,-0.30400614999999886,9.12999115,0.004397781565785408,0.1295643150806427,0.10989464819431304,340.59,-0.048874080181121826,-0.009852549992501736,1.9092354774475098,2.1736786365509033,19.10280990600586,3.415982961654663
12357.0,11500.0,11228.0,11781.0,45.0,46.0,45.0,45.0,11.15999984741211,11.079999923706055,11.170000076293945,11.15999984741211,3.0623409748077393,1.5702706575393677,,-0.06864655,-0.30400614999999886,9.12999115,0.004397781565785408,0.1295643150806427,0.10989464819431304,340.72,-0.048874080181121826,-0.009852549992501736,1.9092354774475098,2.1736786365509033,19.10280990600586,3.415982961654663
12357.0,11500.0,11228.0,11781.0,45.0,46.0,45.0,45.0,11.15999984741211,11.079999923706055,11.170000076293945,11.15999984741211,2.200932741165161,0.7236360907554626,,-0.06864655,-0.30400614999999886,9.12999115,0.004397781565785408,0.1295643150806427,0.10989464819431304,340.71,-0.048874080181121826,-0.009852549992501736,1.9092354774475098,2.1781036853790283,19.127817153930664,3.413820266723633
12357.0,11500.0,11228.0,11781.0,45.0,46.0,45.0,45.0,11.15999984741211,11.079999923706055,11.170000076293945,11.15999984741211,1.2370401620864868,-0.894576370716095,,-0.06864655,-0.30400614999999886,9.12999115,0.004397781565785408,0.1295643150806427,0.10989464819431304,340.53,-0.048874080181121826,-0.009852549992501736,1.9092354774475098,2.1832566261291504,19.143583297729492,3.412400722503662
12357.0,11500.0,11228.0,11781.0,45.0,46.0,45.0,45.0,11.15999984741211,11.079999923706055,11.170000076293945,11.15999984741211,1.3901840448379517,-5.036013126373291,,-0.0784532,-0.3138127999999989,9.16921775,0.20967136323451996,0.21863290667533875,0.05621706321835515,340.53,-0.048874080181121826,-0.009852549992501736,1.9092354774475098,2.1865665912628174,19.157983779907227,3.413520574569702
11477.0,11200.0,11985.0,11542.0,45.0,46.0,45.0,46.0,10.65999984741211,10.15999984741211,11.319999694824219,11.130000114440918,2.180873155593872,-5.773925304412842,,-0.0784532,-0.3138127999999989,9.16921775,0.20967136323451996,0.21863290667533875,0.05621706321835515,340.55,-0.048874080181121826,-0.009852549992501736,1.9092354774475098,2.1865665912628174,19.157983779907227,3.413520574569702
11477.0,11200.0,11985.0,11542.0,45.0,46.0,45.0,46.0,10.65999984741211,10.15999984741211,11.319999694824219,11.130000114440918,3.4261646270751953,-7.226175308227539,,-0.0784532,-0.3138127999999989,9.16921775,0.20967136323451996,0.21863290667533875,0.05621706321835515,340.55,-0.03768821433186531,-0.05394825339317322,1.910900592803955,2.1961467266082764,19.17165184020996,3.416768789291382
11477.0,11200.0,11985.0,11542.0,45.0,46.0,45.0,46.0,10.65999984741211,10.15999984741211,11.319999694824219,11.130000114440918,2.3594095706939697,-6.2743988037109375,,-0.0784532,-0.3138127999999989,9.16921775,0.20967136323451996,0.21863290667533875,0.05621706321835515,340.55,-0.03768821433186531,-0.05394825339317322,1.910900592803955,2.1961467266082764,19.17165184020996,3.416768789291382
11477.0,11200.0,11985.0,11542.0,45.0,46.0,45.0,46.0,10.65999984741211,10.15999984741211,11.319999694824219,11.130000114440918,1.1454579830169678,-3.906179904937744,,-0.0784532,-0.3138127999999989,9.16921775,0.20967136323451996,0.21863290667533875,0.05621706321835515,341.15,-0.03768821433186531,-0.05394825339317322,1.910900592803955,2.208266496658325,19.17892837524414,3.4208481311798096
11477.0,11200.0,11985.0,11542.0,45.0,46.0,45.0,46.0,10.65999984741211,10.15999984741211,11.319999694824219,11.130000114440918,-0.13800202310085297,-1.7752643823623657,,-0.0784532,-0.3138127999999989,9.16921775,0.20967136323451996,0.21863290667533875,0.05621706321835515,341.15,-0.03768821433186531,-0.05394825339317322,1.910900592803955,2.214416265487671,19.179811477661133,3.425879716873169
11477.0,11200.0,11985.0,11542.0,45.0,46.0,45.0,46.0,10.65999984741211,10.15999984741211,11.319999694824219,11.130000114440918,-2.080197334289551,0.9961913824081421,,-0.0784532,-0.3138127999999989,9.16921775,0.20967136323451996,0.21863290667533875,0.05621706321835515,341.24,-0.03768821433186531,-0.05394825339317322,1.910900592803955,2.223703622817993,19.178945541381836,3.4313716888427734
11477.0,11200.0,11985.0,11542.0,45.0,46.0,45.0,46.0,10.65999984741211,10.15999984741211,11.319999694824219,11.130000114440918,-2.020247220993042,1.0097267627716064,,-0.0784532,-0.3138127999999989,9.16921775,0.20967136323451996,0.21863290667533875,0.05621706321835515,341.24,-0.03768821433186531,-0.05394825339317322,1.910900592803955,2.223703622817993,19.178945541381836,3.4313716888427734
11477.0,11200.0,11985.0,11542.0,45.0,46.0,45.0,46.0,10.65999984741211,10.15999984741211,11.319999694824219,11.130000114440918,-0.0808076411485672,0.35798579454421997,,0.00980665,-0.4314925999999989,9.2378643,-0.11480356007814407,-0.08496797084808351,-0.10528431832790373,341.24,-0.03768821433186531,-0.05394825339317322,1.910900592803955,2.2324652671813965,19.179365158081055,3.437431812286377
12128.0,11757.0,11662.0,11842.0,46.0,46.0,45.0,46.0,11.039999961853027,10.979999542236328,11.3100004196167,11.039999961853027,2.401872396469116,0.3505809009075165,,0.00980665,-0.4314925999999989,9.2378643,-0.11480356007814407,-0.08496797084808351,-0.10528431832790373,341.24,-0.03768821433186531,-0.05394825339317322,1.910900592803955,2.2324652671813965,19.179365158081055,3.437431812286377
12128.0,11757.0,11662.0,11842.0,46.0,46.0,45.0,46.0,11.039999961853027,10.979999542236328,11.3100004196167,11.039999961853027,1.095881700515747,2.252999782562256,,0.00980665,-0.4314925999999989,9.2378643,-0.11480356007814407,-0.08496797084808351,-0.10528431832790373,341.43,-0.03768821433186531,-0.05394825339317322,1.910900592803955,2.2324652671813965,19.179365158081055,3.437431812286377
12128.0,11757.0,11662.0,11842.0,46.0,46.0,45.0,46.0,11.039999961853027,10.979999542236328,11.3100004196167,11.039999961853027,-0.3136043846607208,2.4001333713531494,,0.00980665,-0.4314925999999989,9.2378643,-0.11480356007814407,-0.08496797084808351,-0.10528431832790373,341.47,-0.023645896464586258,-0.026057131588459015,1.8982737064361572,2.2462334632873535,19.18330955505371,3.4475932121276855
12128.0,11757.0,11662.0,11842.0,46.0,46.0,45.0,46.0,11.039999961853027,10.979999542236328,11.3100004196167,11.039999961853027,-0.8463066220283508,1.762330174446106,,0.00980665,-0.4314925999999989,9.2378643,-0.11480356007814407,-0.08496797084808351,-0.10528431832790373,341.47,-0.023645896464586258,-0.026057131588459015,1.8982737064361572,2.2531163692474365,19.181997299194336,3.4506850242614746
12128.0,11757.0,11662.0,11842.0,46.0,46.0,45.0,46.0,11.039999961853027,10.979999542236328,11.3100004196167,11.039999961853027,2.4564754962921143,-0.31727948784828186,,0.00980665,-0.4314925999999989,9.2378643,-0.11480356007814407,-0.08496797084808351,-0.10528431832790373,341.36,-0.023645896464586258,-0.026057131588459015,1.8982737064361572,2.255617618560791,19.18022918701172,3.453886032104492
12128.0,11757.0,11662.0,11842.0,46.0,46.0,45.0,46.0,11.039999961853027,10.979999542236328,11.3100004196167,11.039999961853027,2.1614034175872803,-0.9945242404937744,,0.00980665,-0.4314925999999989,9.2378643,-0.11480356007814407,-0.08496797084808351,-0.10528431832790373,341.37,-0.023645896464586258,-0.026057131588459015,1.8982737064361572,2.260077953338623,19.176105499267578,3.455909490585327
12128.0,11757.0,11662.0,11842.0,46.0,46.0,45.0,46.0,11.039999961853027,10.979999542236328,11.3100004196167,11.039999961853027,2.0191798210144043,-1.669662356376648,,0.00980665,-0.4314925999999989,9.2378643,-0.11480356007814407,-0.08496797084808351,-0.10528431832790373,341.37,-0.023645896464586258,-0.026057131588459015,1.8982737064361572,2.2641115188598633,19.167476654052734,3.4579007625579834
12128.0,11757.0,11662.0,11842.0,46.0,46.0,45.0,46.0,11.039999961853027,10.979999542236328,11.3100004196167,11.039999961853027,1.7675138711929321,-1.269252896308899,,0.02941995,-0.3922659999999989,9.1594111,0.02604023553431034,0.08287839591503143,-0.0413130596280098,341.37,-0.023645896464586258,-0.026057131588459015,1.8982737064361572,2.2641115188598633,19.167476654052734,3.4579007625579834
12128.0,11757.0,11662.0,11842.0,46.0,46.0,45.0,46.0,11.039999961853027,10.979999542236328,11.3100004196167,11.039999961853027,1.4262961149215698,-0.7310997247695923,,0.02941995,-0.3922659999999989,9.1594111,0.02604023553431034,0.08287839591503143,-0.0413130596280098,341.33,-0.023645896464586258,-0.026057131588459015,1.8982737064361572,2.2641115188598633,19.167476654052734,3.4579007625579834
12128.0,11757.0,11662.0,11842.0,46.0,46.0,45.0,46.0,11.039999961853027,10.979999542236328,11.3100004196167,11.039999961853027,1.007868766784668,-0.23424312472343445,,0.02941995,-0.3922659999999989,9.1594111,0.02604023553431034,0.08287839591503143,-0.0413130596280098,341.27,-0.03600940853357315,-0.03323701024055481,1.8960450887680054,2.2667746543884277,19.149877548217773,3.4625518321990967
12128.0,11757.0,11662.0,11842.0,46.0,46.0,45.0,46.0,11.039999961853027,10.979999542236328,11.3100004196167,11.039999961853027,0.6737812161445618,0.2808091640472412,,0.02941995,-0.3922659999999989,9.1594111,0.02604023553431034,0.08287839591503143,-0.0413130596280098,341.11,-0.03600940853357315,-0.03323701024055481,1.8960450887680054,2.2712061405181885,19.13749122619629,3.463787317276001
12128.0,11757.0,11662.0,11842.0,46.0,46.0,45.0,46.0,11.039999961853027,10.979999542236328,11.3100004196167,11.039999961853027,0.2826806604862213,0.9257283806800842,,0.02941995,-0.3922659999999989,9.1594111,0.02604023553431034,0.08287839591503143,-0.0413130596280098,340.65,-0.03600940853357315,-0.03323701024055481,1.8960450887680054,2.271257162094116,19.12701416015625,3.4654386043548584
12128.0,11757.0,11662.0,11842.0,46.0,46.0,45.0,46.0,11.039999961853027,10.979999542236328,11.3100004196167,11.039999961853027,-0.15761549770832062,2.013590097427368,,0.02941995,-0.3922659999999989,9.1594111,0.02604023553431034,0.08287839591503143,-0.0413130596280098,340.65,-0.03600940853357315,-0.03323701024055481,1.8960450887680054,2.2777581214904785,19.113130569458008,3.465571880340576
12128.0,11757.0,11662.0,11842.0,46.0,46.0,45.0,46.0,11.039999961853027,10.979999542236328,11.3100004196167,11.039999961853027,-0.36977317929267883,2.144163131713867,,0.02941995,-0.3922659999999989,9.1594111,0.02604023553431034,0.08287839591503143,-0.0413130596280098,340.65,-0.03600940853357315,-0.03323701024055481,1.8960450887680054,2.2777581214904785,19.113130569458008,3.465571880340576
12128.0,11757.0,11662.0,11842.0,46.0,46.0,45.0,46.0,11.039999961853027,10.979999542236328,11.3100004196167,11.039999961853027,-1.0031225681304932,2.1966776847839355,,0.0,-0.42168594999999887,9.20844435,-0.11023196578025818,0.17151308059692383,0.07872880250215528,340.15,-0.03600940853357315,-0.03323701024055481,1.8960450887680054,2.28210711479187,19.102428436279297,3.464066982269287
11900.0,11975.0,11842.0,11557.0,47.0,46.0,45.0,46.0,11.039999961853027,11.079999923706055,11.289999961853027,11.069999694824219,-1.6327515840530396,2.314711809158325,,0.0,-0.42168594999999887,9.20844435,-0.11023196578025818,0.17151308059692383,0.07872880250215528,340.15,-0.03600940853357315,-0.03323701024055481,1.8960450887680054,2.28210711479187,19.102428436279297,3.464066982269287
11900.0,11975.0,11842.0,11557.0,47.0,46.0,45.0,46.0,11.039999961853027,11.079999923706055,11.289999961853027,11.069999694824219,-1.9617420434951782,2.4789884090423584,,0.0,-0.42168594999999887,9.20844435,-0.11023196578025818,0.17151308059692383,0.07872880250215528,339.75,-0.03600940853357315,-0.03323701024055481,1.8960450887680054,2.28210711479187,19.102428436279297,3.464066982269287
11900.0,11975.0,11842.0,11557.0,47.0,46.0,45.0,46.0,11.039999961853027,11.079999923706055,11.289999961853027,11.069999694824219,-1.8124312162399292,3.342214345932007,,0.0,-0.42168594999999887,9.20844435,-0.11023196578025818,0.17151308059692383,0.07872880250215528,339.7,-0.034728728234767914,0.02025090716779232,1.9176818132400513,2.284797430038452,19.094675064086914,3.4620401859283447
11900.0,11975.0,11842.0,11557.0,47.0,46.0,45.0,46.0,11.039999961853027,11.079999923706055,11.289999961853027,11.069999694824219,-0.4786463975906372,4.178318500518799,,0.0,-0.42168594999999887,9.20844435,-0.11023196578025818,0.17151308059692383,0.07872880250215528,339.79,-0.034728728234767914,0.02025090716779232,1.9176818132400513,2.286296844482422,19.09014892578125,3.4586803913116455
11900.0,11975.0,11842.0,11557.0,47.0,46.0,45.0,46.0,11.039999961853027,11.079999923706055,11.289999961853027,11.069999694824219,0.31262996792793274,5.953217506408691,,0.0,-0.42168594999999887,9.20844435,-0.11023196578025818,0.17151308059692383,0.07872880250215528,339.79,-0.034728728234767914,0.02025090716779232,1.9176818132400513,2.2814388275146484,19.084585189819336,3.454528570175171
11900.0,11975.0,11842.0,11557.0,47.0,46.0,45.0,46.0,11.039999961853027,11.079999923706055,11.289999961853027,11.069999694824219,0.33960801362991333,5.470459461212158,,0.0,-0.42168594999999887,9.20844435,-0.11023196578025818,0.17151308059692383,0.07872880250215528,339.85,-0.034728728234767914,0.02025090716779232,1.9176818132400513,2.2814388275146484,19.084585189819336,3.454528570175171
11900.0,11975.0,11842.0,11557.0,47.0,46.0,45.0,46.0,11.039999961853027,11.079999923706055,11.289999961853027,11.069999694824219,0.5715734958648682,5.062405109405518,,0.0,-0.42168594999999887,9.20844435,-0.11023196578025818,0.17151308059692383,0.07872880250215528,339.97,-0.034728728234767914,0.02025090716779232,1.9176818132400513,2.2802364826202393,19.073287963867188,3.4476444721221924
11900.0,11975.0,11842.0,11557.0,47.0,46.0,45.0,46.0,11.039999961853027,11.079999923706055,11.289999961853027,11.069999694824219,1.415236473083496,4.362838268280029,,-0.04903325,-0.42168594999999887,9.3359308,-0.06896771490573883,0.19357740879058838,-0.04604230448603632,339.97,-0.034728728234767914,0.02025090716779232,1.9176818132400513,2.279143810272217,19.064035415649414,3.438838005065918
11900.0,11975.0,11842.0,11557.0,47.0,46.0,45.0,46.0,11.039999961853027,11.079999923706055,11.289999961853027,11.069999694824219,1.9495404958724976,3.0669169425964355,,-0.04903325,-0.42168594999999887,9.3359308,-0.06896771490573883,0.19357740879058838,-0.04604230448603632,339.89,-0.034728728234767914,0.02025090716779232,1.9176818132400513,2.279143810272217,19.064035415649414,3.438838005065918
11900.0,11975.0,11842.0,11557.0,47.0,46.0,45.0,46.0,11.039999961853027,11.079999923706055,11.289999961853027,11.069999694824219,-0.5780655145645142,-1.3004851341247559,,-0.04903325,-0.42168594999999887,9.3359308,-0.06896771490573883,0.19357740879058838,-0.04604230448603632,339.89,-0.013852770440280437,-0.02153676748275757,1.9205846786499023,2.2783994674682617,19.04900550842285,3.4262216091156006
11900.0,11975.0,11842.0,11557.0,47.0,46.0,45.0,46.0,11.039999961853027,11.079999923706055,11.289999961853027,11.069999694824219,0.2377924770116806,-0.29086145758628845,,-0.04903325,-0.42168594999999887,9.3359308,-0.06896771490573883,0.19357740879058838,-0.04604230448603632,340.01,-0.013852770440280437,-0.02153676748275757,1.9205846786499023,2.2799360752105713,19.038673400878906,3.4194228649139404
11900.0,11975.0,11842.0,11557.0,47.0,46.0,45.0,46.0,11.039999961853027,11.079999923706055,11.289999961853027,11.069999694824219,-0.8515326380729675,-1.2484270334243774,,-0.04903325,-0.42168594999999887,9.3359308,-0.06896771490573883,0.19357740879058838,-0.04604230448603632,340.15,-0.013852770440280437,-0.02153676748275757,1.9205846786499023,2.2799360752105713,19.038673400878906,3.4194228649139404
11900.0,11975.0,11842.0,11557.0,47.0,46.0,45.0,46.0,11.039999961853027,11.079999923706055,11.289999961853027,11.069999694824219,-1.8845888376235962,-1.4720755815505981,,-0.04903325,-0.42168594999999887,9.3359308,-0.06896771490573883,0.19357740879058838,-0.04604230448603632,340.49,-0.013852770440280437,-0.02153676748275757,1.9205846786499023,2.2764689922332764,19.025545120239258,3.411167860031128
11900.0,11975.0,11842.0,11557.0,47.0,46.0,45.0,46.0,11.039999961853027,11.079999923706055,11.289999961853027,11.069999694824219,-2.5428998470306396,-1.448224425315857,,-0.04903325,-0.42168594999999887,9.3359308,-0.06896771490573883,0.19357740879058838,-0.04604230448603632,341.34,-0.013852770440280437,-0.02153676748275757,1.9205846786499023,2.277233362197876,19.01637077331543,3.406299352645874
11900.0,11975.0,11842.0,11557.0,47.0,46.0,45.0,46.0,11.039999961853027,11.079999923706055,11.289999961853027,11.069999694824219,-2.4955224990844727,-1.1935980319976807,,-0.04903325,-0.42168594999999887,9.3359308,-0.06896771490573883,0.19357740879058838,-0.04604230448603632,341.34,-0.013852770440280437,-0.02153676748275757,1.9205846786499023,2.276071071624756,19.005435943603516,3.39652419090271
11900.0,11975.0,11842.0,11557.0,47.0,46.0,45.0,46.0,11.039999961853027,11.079999923706055,11.289999961853027,11.069999694824219,-1.943812608718872,-0.4523235857486725,,0.02941995,-0.4511058999999989,9.3751574,0.07793665677309036,-0.12134421616792683,-0.31926316022872925,341.34,-0.013852770440280437,-0.02153676748275757,1.9205846786499023,2.276071071624756,19.005435943603516,3.39652419090271
12285.0,12128.0,11942.0,12085.0,48.0,47.0,46.0,45.0,11.020000457763672,11.0600004196167,11.0,11.329999923706055,-1.099980115890503,0.836100161075592,,0.02941995,-0.4511058999999989,9.3751574,0.07793665677309036,-0.12134421616792683,-0.31926316022872925,343.47,-0.013852770440280437,-0.02153676748275757,1.9205846786499023,2.276071071624756,19.005435943603516,3.39652419090271
12285.0,12128.0,11942.0,12085.0,48.0,47.0,46.0,45.0,11.020000457763672,11.0600004196167,11.0,11.329999923706055,-1.099980115890503,0.836100161075592,,0.02941995,-0.4511058999999989,9.3751574,0.07793665677309036,-0.12134421616792683,-0.31926316022872925,343.47,-0.0276004858314991,-0.012680750340223312,1.895837664604187,2.280010461807251,18.98834800720215,3.3843026161193848
12285.0,12128.0,11942.0,12085.0,48.0,47.0,46.0,45.0,11.020000457763672,11.0600004196167,11.0,11.329999923706055,-0.594923198223114,6.426470756530762,,0.02941995,-0.4511058999999989,9.3751574,0.07793665677309036,-0.12134421616792683,-0.31926316022872925,347.47,-0.0276004858314991,-0.012680750340223312,1.895837664604187,2.280010461807251,18.98834800720215,3.3843026161193848
12285.0,12128.0,11942.0,12085.0,48.0,47.0,46.0,45.0,11.020000457763672,11.0600004196167,11.0,11.329999923706055,-0.594923198223114,6.426470756530762,,0.02941995,-0.4511058999999989,9.3751574,0.07793665677309036,-0.12134421616792683,-0.31926316022872925,352.93,-0.0276004858314991,-0.012680750340223312,1.895837664604187,2.2852442264556885,18.972728729248047,3.377641201019287
12285.0,12128.0,11942.0,12085.0,48.0,47.0,46.0,45.0,11.020000457763672,11.0600004196167,11.0,11.329999923706055,1.0129140615463257,3.8726017475128174,,0.02941995,-0.4511058999999989,9.3751574,0.07793665677309036,-0.12134421616792683,-0.31926316022872925,359.99,-0.0276004858314991,-0.012680750340223312,1.895837664604187,2.285994291305542,18.95894432067871,3.3708322048187256
12285.0,12128.0,11942.0,12085.0,48.0,47.0,46.0,45.0,11.020000457763672,11.0600004196167,11.0,11.329999923706055,-0.21432296931743622,1.8374701738357544,,0.02941995,-0.4511058999999989,9.3751574,0.07793665677309036,-0.12134421616792683,-0.31926316022872925,8.94,-0.0276004858314991,-0.012680750340223312,1.895837664604187,2.2909233570098877,18.947202682495117,3.3687705993652344
12285.0,12128.0,11942.0,12085.0,48.0,47.0,46.0,45.0,11.020000457763672,11.0600004196167,11.0,11.329999923706055,0.8047577738761902,2.1468520164489746,,0.02941995,-0.4511058999999989,9.3751574,0.07793665677309036,-0.12134421616792683,-0.31926316022872925,8.94,-0.0276004858314991,-0.012680750340223312,1.895837664604187,2.2870283126831055,18.930265426635742,3.361459970474243
12285.0,12128.0,11942.0,12085.0,48.0,47.0,46.0,45.0,11.020000457763672,11.0600004196167,11.0,11.329999923706055,2.6804518699645996,3.1009278297424316,,0.16671305,-0.3628460499999988,9.52225715,0.061823684722185135,0.29438915848731967,-2.1936333179473877,8.94,-0.0276004858314991,-0.012680750340223312,1.895837664604187,2.2870283126831055,18.930265426635742,3.361459970474243
13257.0,13557.0,13557.0,13205.0,47.0,47.0,47.0,46.0,11.079999923706055,11.010000228881836,11.0600004196167,11.25,2.6804518699645996,3.1009278297424316,,0.16671305,-0.3628460499999988,9.52225715,0.061823684722185135,0.29438915848731967,-2.1936333179473877,8.94,-0.0276004858314991,-0.012680750340223312,1.895837664604187,2.2870283126831055,18.930265426635742,3.361459970474243
13257.0,13557.0,13557.0,13205.0,47.0,47.0,47.0,46.0,11.079999923706055,11.010000228881836,11.0600004196167,11.25,5.254696846008301,6.422177791595459,,0.16671305,-0.3628460499999988,9.52225715,0.061823684722185135,0.29438915848731967,-2.1936333179473877,19.86,-0.0276004858314991,-0.012680750340223312,1.895837664604187,2.2870283126831055,18.930265426635742,3.361459970474243
13257.0,13557.0,13557.0,13205.0,47.0,47.0,47.0,46.0,11.079999923706055,11.010000228881836,11.0600004196167,11.25,6.943133354187012,9.229408264160156,,0.16671305,-0.3628460499999988,9.52225715,0.061823684722185135,0.29438915848731967,-2.1936333179473877,30.32,-0.04406624287366867,0.034406691789627075,1.4092211723327637,2.280123233795166,18.908649444580078,3.3565173149108887
13257.0,13557.0,13557.0,13205.0,47.0,47.0,47.0,46.0,11.079999923706055,11.010000228881836,11.0600004196167,11.25,7.198646545410156,9.384190559387207,,0.16671305,-0.3628460499999988,9.52225715,0.061823684722185135,0.29438915848731967,-2.1936333179473877,39.49,-0.04406624287366867,0.034406691789627075,1.4092211723327637,2.2704365253448486,18.903642654418945,3.3528690338134766
13257.0,13557.0,13557.0,13205.0,47.0,47.0,47.0,46.0,11.079999923706055,11.010000228881836,11.0600004196167,11.25,7.275473117828369,9.296131134033203,,0.16671305,-0.3628460499999988,9.52225715,0.061823684722185135,0.29438915848731967,-2.1936333179473877,46.61,-0.04406624287366867,0.034406691789627075,1.4092211723327637,2.2580807209014893,18.905139923095703,3.352463960647583
13257.0,13557.0,13557.0,13205.0,47.0,47.0,47.0,46.0,11.079999923706055,11.010000228881836,11.0600004196167,11.25,7.275473117828369,9.296131134033203,,0.16671305,-0.3628460499999988,9.52225715,0.061823684722185135,0.29438915848731967,-2.1936333179473877,52.0,-0.04406624287366867,0.034406691789627075,1.4092211723327637,2.2470085620880127,18.91049575805664,3.353062152862549
13257.0,13557.0,13557.0,13205.0,47.0,47.0,47.0,46.0,11.079999923706055,11.010000228881836,11.0600004196167,11.25,5.523782730102539,7.668724060058594,,0.26477955,-0.06864654999999882,9.6497436,0.3608672320842743,1.0893019437789915,-1.0481662750244143,52.0,-0.04406624287366867,0.034406691789627075,1.4092211723327637,2.2411484718322754,18.93760108947754,3.353693723678589
13257.0,13557.0,13557.0,13205.0,47.0,47.0,47.0,46.0,11.079999923706055,11.010000228881836,11.0600004196167,11.25,5.820314407348633,10.526895523071289,,0.26477955,-0.06864654999999882,9.6497436,0.3608672320842743,1.0893019437789915,-1.0481662750244143,52.0,-0.04406624287366867,0.034406691789627075,1.4092211723327637,2.2411484718322754,18.93760108947754,3.353693723678589
10771.0,10600.0,10928.0,12214.0,46.0,46.0,47.0,48.0,11.319999694824219,11.270000457763672,10.3100004196167,11.09000015258789,4.626767635345459,13.923660278320312,,0.26477955,-0.06864654999999882,9.6497436,0.3608672320842743,1.0893019437789915,-1.0481662750244143,55.69,-0.04406624287366867,0.034406691789627075,1.4092211723327637,2.2411484718322754,18.93760108947754,3.353693723678589
10771.0,10600.0,10928.0,12214.0,46.0,46.0,47.0,48.0,11.319999694824219,11.270000457763672,10.3100004196167,11.09000015258789,4.168157577514648,17.228195190429688,,0.26477955,-0.06864654999999882,9.6497436,0.3608672320842743,1.0893019437789915,-1.0481662750244143,57.37,-0.0037317639216780663,0.23303884267807007,0.6606427431106567,2.2708051204681396,19.001747131347656,3.3600544929504395
10771.0,10600.0,10928.0,12214.0,46.0,46.0,47.0,48.0,11.319999694824219,11.270000457763672,10.3100004196167,11.09000015258789,4.168157577514648,17.228195190429688,,0.26477955,-0.06864654999999882,9.6497436,0.3608672320842743,1.0893019437789915,-1.0481662750244143,57.63,-0.0037317639216780663,0.23303884267807007,0.6606427431106567,2.3058674335479736,19.04525375366211,3.363673210144043
10771.0,10600.0,10928.0,12214.0,46.0,46.0,47.0,48.0,11.319999694824219,11.270000457763672,10.3100004196167,11.09000015258789,3.6691126823425293,17.304615020751953,,0.26477955,-0.06864654999999882,9.6497436,0.3608672320842743,1.0893019437789915,-1.0481662750244143,56.34,-0.0037317639216780663,0.23303884267807007,0.6606427431106567,2.3527982234954834,19.09441566467285,3.367075204849243
10771.0,10600.0,10928.0,12214.0,46.0,46.0,47.0,48.0,11.319999694824219,11.270000457763672,10.3100004196167,11.09000015258789,3.7993006706237793,18.904726028442383,,0.26477955,-0.06864654999999882,9.6497436,0.3608672320842743,1.0893019437789915,-1.0481662750244143,56.34,-0.0037317639216780663,0.23303884267807007,0.6606427431106567,2.432297945022583,19.163381576538086,3.3722593784332275
10771.0,10600.0,10928.0,12214.0,46.0,46.0,47.0,48.0,11.319999694824219,11.270000457763672,10.3100004196167,11.09000015258789,3.5219366550445557,19.090147018432617,,0.26477955,-0.06864654999999882,9.6497436,0.3608672320842743,1.0893019437789915,-1.0481662750244143,52.94,-0.0037317639216780663,0.23303884267807007,0.6606427431106567,2.432297945022583,19.163381576538086,3.3722593784332275
10771.0,10600.0,10928.0,12214.0,46.0,46.0,47.0,48.0,11.319999694824219,11.270000457763672,10.3100004196167,11.09000015258789,-0.17680411040782928,13.27369499206543,,0.00980665,-0.058839899999998835,9.54187045,-0.28493520617485046,-0.5926789641380309,0.9274071455001832,52.94,-0.0037317639216780663,0.23303884267807007,0.6606427431106567,2.5338878631591797,19.242504119873047,3.375558376312256
10385.0,10600.0,9828.0,12828.0,46.0,46.0,47.0,48.0,11.319999694824219,11.270000457763672,10.3100004196167,11.09000015258789,-0.9594531655311584,6.50432014465332,,0.00980665,-0.058839899999998835,9.54187045,-0.28493520617485046,-0.5926789641380309,0.9274071455001832,52.94,-0.0037317639216780663,0.23303884267807007,0.6606427431106567,2.5338878631591797,19.242504119873047,3.375558376312256
10385.0,10600.0,9828.0,12828.0,46.0,50.0,47.0,48.0,11.210000038146973,11.239999771118164,10.90999984741211,10.949999809265137,-2.475067377090454,-0.602039098739624,,0.00980665,-0.058839899999998835,9.54187045,-0.28493520617485046,-0.5926789641380309,0.9274071455001832,47.56,-0.0037317639216780663,0.23303884267807007,0.6606427431106567,2.5338878631591797,19.242504119873047,3.375558376312256
10385.0,10600.0,9828.0,12828.0,46.0,50.0,47.0,48.0,11.210000038146973,11.239999771118164,10.90999984741211,10.949999809265137,-2.2246177196502686,-5.883655548095703,,0.00980665,-0.058839899999998835,9.54187045,-0.28493520617485046,-0.5926789641380309,0.9274071455001832,40.44,0.029186591506004333,0.23635125160217285,0.6489838361740112,2.707728147506714,19.363800048828125,3.377638578414917
10385.0,10600.0,9828.0,12828.0,46.0,50.0,47.0,48.0,11.210000038146973,11.239999771118164,10.90999984741211,10.949999809265137,-2.029296636581421,-9.14452075958252,,0.00980665,-0.058839899999998835,9.54187045,-0.28493520617485046,-0.5926789641380309,0.9274071455001832,33.79,0.029186591506004333,0.23635125160217285,0.6489838361740112,2.800577402114868,19.42479133605957,3.377861738204956
10385.0,10600.0,9828.0,12828.0,46.0,50.0,47.0,48.0,11.210000038146973,11.239999771118164,10.90999984741211,10.949999809265137,-2.029296636581421,-9.14452075958252,,0.00980665,-0.058839899999998835,9.54187045,-0.28493520617485046,-0.5926789641380309,0.9274071455001832,33.79,0.029186591506004333,0.23635125160217285,0.6489838361740112,2.9381980895996094,19.506555557250977,3.3777942657470703
10385.0,10600.0,9828.0,12828.0,46.0,50.0,47.0,48.0,11.210000038146973,11.239999771118164,10.90999984741211,10.949999809265137,-2.8683228492736816,-13.416528701782227,,0.00980665,-0.058839899999998835,9.54187045,-0.28493520617485046,-0.5926789641380309,0.9274071455001832,28.52,0.029186591506004333,0.23635125160217285,0.6489838361740112,2.9381980895996094,19.506555557250977,3.3777942657470703
10385.0,10600.0,9828.0,12828.0,46.0,50.0,47.0,48.0,11.210000038146973,11.239999771118164,10.90999984741211,10.949999809265137,-1.6581095457077026,-17.430217742919922,,0.00980665,-0.058839899999998835,9.54187045,-0.28493520617485046,-0.5926789641380309,0.9274071455001832,25.03,0.029186591506004333,0.23635125160217285,0.6489838361740112,3.1164143085479736,19.615991592407227,3.376504421234131
10385.0,10600.0,9828.0,12828.0,46.0,50.0,47.0,48.0,11.210000038146973,11.239999771118164,10.90999984741211,10.949999809265137,-1.6581095457077026,-17.430217742919922,,-0.0392266,-0.12748644999999886,9.4536106,-0.4625205397605896,0.3275823295116425,0.6559233665466309,25.03,0.029186591506004333,0.23635125160217285,0.6489838361740112,3.261691093444824,19.709339141845703,3.3740086555480957
13114.0,13058.0,12257.0,10557.0,47.0,46.0,48.0,47.0,11.210000038146973,11.279999732971191,10.960000038146973,10.819999694824219,-1.2101043462753296,-19.90841293334961,,-0.0392266,-0.12748644999999886,9.4536106,-0.4625205397605896,0.3275823295116425,0.6559233665466309,23.43,0.029186591506004333,0.23635125160217285,0.6489838361740112,3.261691093444824,19.709339141845703,3.3740086555480957
13114.0,13058.0,12257.0,10557.0,47.0,46.0,48.0,47.0,11.210000038146973,11.279999732971191,10.960000038146973,10.819999694824219,0.8923735618591309,-20.112253189086914,,-0.0392266,-0.12748644999999886,9.4536106,-0.4625205397605896,0.3275823295116425,0.6559233665466309,23.43,0.029186591506004333,0.23635125160217285,0.6489838361740112,3.261691093444824,19.709339141845703,3.3740086555480957
13114.0,13058.0,12257.0,10557.0,47.0,46.0,48.0,47.0,11.210000038146973,11.279999732971191,10.960000038146973,10.819999694824219,4.070312023162842,-18.456071853637695,,-0.0392266,-0.12748644999999886,9.4536106,-0.4625205397605896,0.3275823295116425,0.6559233665466309,22.84,-0.06329615414142609,0.20381085574626923,1.135127305984497,3.5376007556915283,19.90903663635254,3.3731303215026855
13114.0,13058.0,12257.0,10557.0,47.0,46.0,48.0,47.0,11.210000038146973,11.279999732971191,10.960000038146973,10.819999694824219,4.070312023162842,-18.456071853637695,,-0.0392266,-0.12748644999999886,9.4536106,-0.4625205397605896,0.3275823295116425,0.6559233665466309,22.7,-0.06329615414142609,0.20381085574626923,1.135127305984497,3.6536219120025635,20.004005432128906,3.371891975402832
13114.0,13058.0,12257.0,10557.0,47.0,46.0,48.0,47.0,11.210000038146973,11.279999732971191,10.960000038146973,10.819999694824219,6.692148208618164,-16.62546730041504,,-0.0392266,-0.12748644999999886,9.4536106,-0.4625205397605896,0.3275823295116425,0.6559233665466309,22.79,-0.06329615414142609,0.20381085574626923,1.135127305984497,3.801504135131836,20.154062271118164,3.3676767349243164
13114.0,13058.0,12257.0,10557.0,47.0,46.0,48.0,47.0,11.210000038146973,11.279999732971191,10.960000038146973,10.819999694824219,8.879801750183105,-15.556599617004395,,-0.0392266,-0.12748644999999886,9.4536106,-0.4625205397605896,0.3275823295116425,0.6559233665466309,23.23,-0.06329615414142609,0.20381085574626923,1.135127305984497,3.935323715209961,20.300762176513672,3.36396861076355
13114.0,13058.0,12257.0,10557.0,47.0,46.0,48.0,47.0,11.210000038146973,11.279999732971191,10.960000038146973,10.819999694824219,10.363842964172363,-17.747873306274414,,-0.0392266,-0.12748644999999886,9.4536106,-0.4625205397605896,0.3275823295116425,0.6559233665466309,23.23,-0.06329615414142609,0.20381085574626923,1.135127305984497,4.072457313537598,20.47039794921875,3.3568785190582275
13114.0,13058.0,12257.0,10557.0,47.0,46.0,48.0,47.0,11.210000038146973,11.279999732971191,10.960000038146973,10.819999694824219,10.39786148071289,-18.57997703552246,,-0.24516625,-0.2353595999999988,9.639936950000001,0.06341566890478134,-0.31064942479133606,-0.20384871959686277,23.23,-0.06329615414142609,0.20381085574626923,1.135127305984497,4.072457313537598,20.47039794921875,3.3568785190582275
11615.0,12313.0,12000.0,11771.0,47.0,51.0,47.0,48.0,11.15999984741211,10.670000076293945,11.020000457763672,10.960000038146973,8.695316314697266,-16.88427734375,,-0.24516625,-0.2353595999999988,9.639936950000001,0.06341566890478134,-0.31064942479133606,-0.20384871959686277,23.7,-0.06329615414142609,0.20381085574626923,1.135127305984497,4.072457313537598,20.47039794921875,3.3568785190582275
11615.0,12313.0,12000.0,11771.0,47.0,51.0,47.0,48.0,11.15999984741211,10.670000076293945,11.020000457763672,10.960000038146973,8.695316314697266,-16.88427734375,,-0.24516625,-0.2353595999999988,9.639936950000001,0.06341566890478134,-0.31064942479133606,-0.20384871959686277,23.7,-0.07925999164581299,0.19946007430553436,1.1648404598236084,4.275143623352051,20.74150276184082,3.348236322402954
11615.0,12313.0,12000.0,11771.0,47.0,51.0,47.0,48.0,11.15999984741211,10.670000076293945,11.020000457763672,10.960000038146973,6.708279609680176,-19.195024490356445,,-0.24516625,-0.2353595999999988,9.639936950000001,0.06341566890478134,-0.31064942479133606,-0.20384871959686277,24.08,-0.07925999164581299,0.19946007430553436,1.1648404598236084,4.44263219833374,20.981029510498047,3.3391075134277344
11615.0,12313.0,12000.0,11771.0,47.0,51.0,47.0,48.0,11.15999984741211,10.670000076293945,11.020000457763672,10.960000038146973,5.4038872718811035,-22.844762802124023,,-0.24516625,-0.2353595999999988,9.639936950000001,0.06341566890478134,-0.31064942479133606,-0.20384871959686277,24.34,-0.07925999164581299,0.19946007430553436,1.1648404598236084,4.44263219833374,20.981029510498047,3.3391075134277344
11615.0,12313.0,12000.0,11771.0,47.0,51.0,47.0,48.0,11.15999984741211,10.670000076293945,11.020000457763672,10.960000038146973,5.19132661819458,-25.105323791503906,,-0.24516625,-0.2353595999999988,9.639936950000001,0.06341566890478134,-0.31064942479133606,-0.20384871959686277,24.52,-0.07925999164581299,0.19946007430553436,1.1648404598236084,4.553953170776367,21.156187057495117,3.330179452896118
11615.0,12313.0,12000.0,11771.0,47.0,51.0,47.0,48.0,11.15999984741211,10.670000076293945,11.020000457763672,10.960000038146973,3.8518879413604736,-23.481285095214844,,-0.24516625,-0.2353595999999988,9.639936950000001,0.06341566890478134,-0.31064942479133606,-0.20384871959686277,25.19,-0.07925999164581299,0.19946007430553436,1.1648404598236084,4.670382976531982,21.34358024597168,3.319662094116211
11615.0,12313.0,12000.0,11771.0,47.0,51.0,47.0,48.0,11.15999984741211,10.670000076293945,11.020000457763672,10.960000038146973,2.5676445960998535,-21.777902603149414,,-0.40207265000000003,-0.3432327499999988,9.40457735,-0.04678056761622429,-0.5696694254875183,-0.2240957170724868,25.19,-0.07925999164581299,0.19946007430553436,1.1648404598236084,4.805780410766602,21.56118392944336,3.30603289604187
10514.0,12614.0,12200.0,11271.0,47.0,51.0,47.0,48.0,11.15999984741211,10.670000076293945,11.020000457763672,10.960000038146973,1.8805899620056152,-21.437625885009766,,-0.40207265000000003,-0.3432327499999988,9.40457735,-0.04678056761622429,-0.5696694254875183,-0.2240957170724868,25.19,-0.07925999164581299,0.19946007430553436,1.1648404598236084,4.805780410766602,21.56118392944336,3.30603289604187
10514.0,12614.0,12200.0,11271.0,47.0,46.0,46.0,47.0,11.25,10.859999656677246,11.069999694824219,11.010000228881836,-0.5405974984169006,-23.405094146728516,,-0.40207265000000003,-0.3432327499999988,9.40457735,-0.04678056761622429,-0.5696694254875183,-0.2240957170724868,25.78,-0.07925999164581299,0.19946007430553436,1.1648404598236084,4.805780410766602,21.56118392944336,3.30603289604187
10514.0,12614.0,12200.0,11271.0,47.0,46.0,46.0,47.0,11.25,10.859999656677246,11.069999694824219,11.010000228881836,-3.7050325870513916,-25.19687271118164,,-0.40207265000000003,-0.3432327499999988,9.40457735,-0.04678056761622429,-0.5696694254875183,-0.2240957170724868,25.88,-0.03353743627667427,0.03727628290653229,1.1306452751159668,5.044672012329102,21.943851470947266,3.289456367492676
10514.0,12614.0,12200.0,11271.0,47.0,46.0,46.0,47.0,11.25,10.859999656677246,11.069999694824219,11.010000228881836,-4.021786689758301,-24.78004264831543,,-0.40207265000000003,-0.3432327499999988,9.40457735,-0.04678056761622429,-0.5696694254875183,-0.2240957170724868,26.28,-0.03353743627667427,0.03727628290653229,1.1306452751159668,5.1413164138793945,22.100706100463867,3.2803921699523926
10514.0,12614.0,12200.0,11271.0,47.0,46.0,46.0,47.0,11.25,10.859999656677246,11.069999694824219,11.010000228881836,-2.884868621826172,-24.653291702270508,,-0.40207265000000003,-0.3432327499999988,9.40457735,-0.04678056761622429,-0.5696694254875183,-0.2240957170724868,26.27,-0.03353743627667427,0.03727628290653229,1.1306452751159668,5.250277996063232,22.277719497680664,3.2737433910369873
10514.0,12614.0,12200.0,11271.0,47.0,46.0,46.0,47.0,11.25,10.859999656677246,11.069999694824219,11.010000228881836,-1.206823706626892,-27.973674774169922,,-0.40207265000000003,-0.3432327499999988,9.40457735,-0.04678056761622429,-0.5696694254875183,-0.2240957170724868,26.27,-0.03353743627667427,0.03727628290653229,1.1306452751159668,5.250277996063232,22.277719497680664,3.2737433910369873
10514.0,12614.0,12200.0,11271.0,47.0,46.0,46.0,47.0,11.25,10.859999656677246,11.069999694824219,11.010000228881836,-1.206823706626892,-27.973674774169922,,-0.40207265000000003,-0.3432327499999988,9.40457735,-0.04678056761622429,-0.5696694254875183,-0.2240957170724868,26.33,-0.03353743627667427,0.03727628290653229,1.1306452751159668,5.371506690979004,22.472841262817383,3.2705910205841064
10514.0,12614.0,12200.0,11271.0,47.0,46.0,46.0,47.0,11.25,10.859999656677246,11.069999694824219,11.010000228881836,-0.008710949681699276,-25.11148452758789,,-0.40207265000000003,-0.31381279999999884,9.463417250000001,0.07455046474933624,0.16103705763816833,-0.059689175337553045,26.33,-0.03353743627667427,0.03727628290653229,1.1306452751159668,5.508224964141846,22.697309494018555,3.2657294273376465
10514.0,12614.0,12200.0,11271.0,47.0,46.0,46.0,47.0,11.25,10.859999656677246,11.069999694824219,11.010000228881836,-0.5766146779060364,-25.608858108520508,,-0.40207265000000003,-0.31381279999999884,9.463417250000001,0.07455046474933624,0.16103705763816833,-0.059689175337553045,26.48,-0.03353743627667427,0.03727628290653229,1.1306452751159668,5.508224964141846,22.697309494018555,3.2657294273376465
10514.0,12614.0,12200.0,11271.0,47.0,46.0,46.0,47.0,11.25,10.859999656677246,11.069999694824219,11.010000228881836,-0.2437964230775833,-29.400583267211914,,-0.40207265000000003,-0.31381279999999884,9.463417250000001,0.07455046474933624,0.16103705763816833,-0.059689175337553045,26.24,-0.024565760046243668,0.06471595168113708,1.111074686050415,5.660668849945068,22.952741622924805,3.267622709274292
10514.0,12614.0,12200.0,11271.0,47.0,46.0,46.0,47.0,11.25,10.859999656677246,11.069999694824219,11.010000228881836,0.26837223768234253,-23.756277084350586,,-0.40207265000000003,-0.31381279999999884,9.463417250000001,0.07455046474933624,0.16103705763816833,-0.059689175337553045,26.02,-0.024565760046243668,0.06471595168113708,1.111074686050415,5.780315399169922,23.152542114257812,3.2713491916656494
10514.0,12614.0,12200.0,11271.0,47.0,46.0,46.0,47.0,11.25,10.859999656677246,11.069999694824219,11.010000228881836,-0.5550916790962219,-22.597930908203125,,-0.40207265000000003,-0.31381279999999884,9.463417250000001,0.07455046474933624,0.16103705763816833,-0.059689175337553045,26.02,-0.024565760046243668,0.06471595168113708,1.111074686050415,5.9141011238098145,23.383506774902344,3.274446725845337
10514.0,12614.0,12200.0,11271.0,47.0,46.0,46.0,47.0,11.25,10.859999656677246,11.069999694824219,11.010000228881836,-0.68012535572052,-23.484027862548828,,-0.40207265000000003,-0.31381279999999884,9.463417250000001,0.07455046474933624,0.16103705763816833,-0.059689175337553045,26.33,-0.024565760046243668,0.06471595168113708,1.111074686050415,6.050573348999023,23.617271423339844,3.27933669090271
10514.0,12614.0,12200.0,11271.0,47.0,46.0,46.0,47.0,11.25,10.859999656677246,11.069999694824219,11.010000228881836,-0.68012535572052,-23.484027862548828,,-0.40207265000000003,-0.31381279999999884,9.463417250000001,0.07455046474933624,0.16103705763816833,-0.059689175337553045,26.47,-0.024565760046243668,0.06471595168113708,1.111074686050415,6.050573348999023,23.617271423339844,3.27933669090271
10514.0,12614.0,12200.0,11271.0,47.0,46.0,46.0,47.0,11.25,10.859999656677246,11.069999694824219,11.010000228881836,0.4497961401939392,-23.9029541015625,,-0.4511059,-0.17651969999999886,9.26728425,-0.05919409170746803,0.13332390785217285,0.020862661302089674,26.47,-0.024565760046243668,0.06471595168113708,1.111074686050415,6.1895599365234375,23.85598373413086,3.2799384593963623
10685.0,11861.0,12271.0,12114.0,48.0,47.0,47.0,47.0,11.050000190734863,11.15999984741211,10.779999732971191,11.270000457763672,-0.17435269057750702,-23.30092430114746,,-0.4511059,-0.17651969999999886,9.26728425,-0.05919409170746803,0.13332390785217285,0.020862661302089674,26.47,-0.024565760046243668,0.06471595168113708,1.111074686050415,6.1895599365234375,23.85598373413086,3.2799384593963623
10685.0,11861.0,12271.0,12114.0,48.0,47.0,47.0,47.0,11.050000190734863,11.15999984741211,10.779999732971191,11.270000457763672,-2.15216064453125,-22.963584899902344,,-0.4511059,-0.17651969999999886,9.26728425,-0.05919409170746803,0.13332390785217285,0.020862661302089674,26.35,-0.024565760046243668,0.06471595168113708,1.111074686050415,6.1895599365234375,23.85598373413086,3.2799384593963623
10685.0,11861.0,12271.0,12114.0,48.0,47.0,47.0,47.0,11.050000190734863,11.15999984741211,10.779999732971191,11.270000457763672,-3.5469436645507812,-24.284278869628906,,-0.4511059,-0.17651969999999886,9.26728425,-0.05919409170746803,0.13332390785217285,0.020862661302089674,26.6,-0.02808799222111702,0.12547148764133453,1.1087288856506348,6.367166996002197,24.16326904296875,3.2815446853637695
10685.0,11861.0,12271.0,12114.0,48.0,47.0,47.0,47.0,11.050000190734863,11.15999984741211,10.779999732971191,11.270000457763672,-1.8114806413650513,-25.941190719604492,,-0.4511059,-0.17651969999999886,9.26728425,-0.05919409170746803,0.13332390785217285,0.020862661302089674,26.6,-0.02808799222111702,0.12547148764133453,1.1087288856506348,6.490826606750488,24.376768112182617,3.2827773094177246
10685.0,11861.0,12271.0,12114.0,48.0,47.0,47.0,47.0,11.050000190734863,11.15999984741211,10.779999732971191,11.270000457763672,-1.8114806413650513,-25.941190719604492,,-0.4511059,-0.17651969999999886,9.26728425,-0.05919409170746803,0.13332390785217285,0.020862661302089674,26.6,-0.02808799222111702,0.12547148764133453,1.1087288856506348,6.62442684173584,24.613895416259766,3.280543804168701
10685.0,11861.0,12271.0,12114.0,48.0,47.0,47.0,47.0,11.050000190734863,11.15999984741211,10.779999732971191,11.270000457763672,-0.5301312208175659,-22.76496124267578,,-0.4511059,-0.17651969999999886,9.26728425,-0.05919409170746803,0.13332390785217285,0.020862661302089674,26.71,-0.02808799222111702,0.12547148764133453,1.1087288856506348,6.62442684173584,24.613895416259766,3.280543804168701
10685.0,11861.0,12271.0,12114.0,48.0,47.0,47.0,47.0,11.050000190734863,11.15999984741211,10.779999732971191,11.270000457763672,-2.5863027572631836,-27.113128662109375,,-0.4511059,-0.17651969999999886,9.26728425,-0.05919409170746803,0.13332390785217285,0.020862661302089674,26.6,-0.02808799222111702,0.12547148764133453,1.1087288856506348,6.773661136627197,24.87559700012207,3.281391143798828
10685.0,11861.0,12271.0,12114.0,48.0,47.0,47.0,47.0,11.050000190734863,11.15999984741211,10.779999732971191,11.270000457763672,-2.831822395324707,-29.820703506469727,,-0.55897905,-0.2353595999999989,9.20844435,0.14154359698295593,-0.010567994788289068,0.015604058280587198,26.6,-0.02808799222111702,0.12547148764133453,1.1087288856506348,6.923534870147705,25.142902374267578,3.2805068492889404
10685.0,11861.0,12271.0,12114.0,48.0,47.0,47.0,47.0,11.050000190734863,11.15999984741211,10.779999732971191,11.270000457763672,-2.831822395324707,-29.820703506469727,,-0.55897905,-0.2353595999999989,9.20844435,0.14154359698295593,-0.010567994788289068,0.015604058280587198,26.68,-0.02808799222111702,0.12547148764133453,1.1087288856506348,6.923534870147705,25.142902374267578,3.2805068492889404
10685.0,11861.0,12271.0,12114.0,48.0,47.0,47.0,47.0,11.050000190734863,11.15999984741211,10.779999732971191,11.270000457763672,-1.7068238258361816,-30.77403450012207,,-0.55897905,-0.2353595999999989,9.20844435,0.14154359698295593,-0.010567994788289068,0.015604058280587198,26.68,-0.015731122344732285,0.12097333371639252,1.1066123247146606,7.08620548248291,25.440868377685547,3.2815651893615723
10685.0,11861.0,12271.0,12114.0,48.0,47.0,47.0,47.0,11.050000190734863,11.15999984741211,10.779999732971191,11.270000457763672,-1.9137961864471436,-31.62993049621582,,-0.55897905,-0.2353595999999989,9.20844435,0.14154359698295593,-0.010567994788289068,0.015604058280587198,26.56,-0.015731122344732285,0.12097333371639252,1.1066123247146606,7.08620548248291,25.440868377685547,3.2815651893615723
10685.0,11861.0,12271.0,12114.0,48.0,47.0,47.0,47.0,11.050000190734863,11.15999984741211,10.779999732971191,11.270000457763672,-0.9413799047470093,-27.23084831237793,,-0.55897905,-0.2353595999999989,9.20844435,0.14154359698295593,-0.010567994788289068,0.015604058280587198,26.56,-0.015731122344732285,0.12097333371639252,1.1066123247146606,7.225486755371094,25.69077491760254,3.287825584411621
10685.0,11861.0,12271.0,12114.0,48.0,47.0,47.0,47.0,11.050000190734863,11.15999984741211,10.779999732971191,11.270000457763672,-0.6180253624916077,-27.51497459411621,,-0.55897905,-0.2353595999999989,9.20844435,0.14154359698295593,-0.010567994788289068,0.015604058280587198,26.26,-0.015731122344732285,0.12097333371639252,1.1066123247146606,7.225486755371094,25.69077491760254,3.287825584411621
10685.0,11861.0,12271.0,12114.0,48.0,47.0,47.0,47.0,11.050000190734863,11.15999984741211,10.779999732971191,11.270000457763672,-0.8260321021080017,-27.94469451904297,,-0.55897905,-0.2353595999999989,9.20844435,0.14154359698295593,-0.010567994788289068,0.015604058280587198,26.07,-0.015731122344732285,0.12097333371639252,1.1066123247146606,7.416582107543945,26.03623390197754,3.2877371311187744
10685.0,11861.0,12271.0,12114.0,48.0,47.0,47.0,47.0,11.050000190734863,11.15999984741211,10.779999732971191,11.270000457763672,-0.009454881772398949,-25.949426651000977,,-0.55897905,-0.2353595999999989,9.20844435,0.14154359698295593,-0.010567994788289068,0.015604058280587198,26.11,-0.015731122344732285,0.12097333371639252,1.1066123247146606,7.533163547515869,26.244890213012695,3.2887721061706543
10685.0,11861.0,12271.0,12114.0,48.0,47.0,47.0,47.0,11.050000190734863,11.15999984741211,10.779999732971191,11.270000457763672,-0.1418503224849701,-28.610109329223633,,-0.5687857000000001,-0.26477954999999886,9.28689755,0.004294490907341242,-0.09323453158140182,-0.03419109061360358,26.11,-0.015731122344732285,0.12097333371639252,1.1066123247146606,7.690556526184082,26.52664566040039,3.290815830230713
11178.0,10871.0,12385.0,10257.0,47.0,48.0,47.0,47.0,10.420000076293945,11.050000190734863,11.670000076293945,11.119999885559082,-0.1418503224849701,-28.610109329223633,,-0.5687857000000001,-0.26477954999999886,9.28689755,0.004294490907341242,-0.09323453158140182,-0.03419109061360358,26.11,-0.015731122344732285,0.12097333371639252,1.1066123247146606,7.690556526184082,26.52664566040039,3.290815830230713
11178.0,10871.0,12385.0,10257.0,47.0,48.0,47.0,47.0,10.420000076293945,11.050000190734863,11.670000076293945,11.119999885559082,-0.8543136119842529,-25.452165603637695,,-0.5687857000000001,-0.26477954999999886,9.28689755,0.004294490907341242,-0.09323453158140182,-0.03419109061360358,26.4,-0.015731122344732285,0.12097333371639252,1.1066123247146606,7.690556526184082,26.52664566040039,3.290815830230713
11178.0,10871.0,12385.0,10257.0,47.0,48.0,47.0,47.0,10.420000076293945,11.050000190734863,11.670000076293945,11.119999885559082,-0.4340139329433441,-24.476375579833984,,-0.5687857000000001,-0.26477954999999886,9.28689755,0.004294490907341242,-0.09323453158140182,-0.03419109061360358,26.39,-0.005624464713037014,0.12589648365974426,1.1148130893707275,7.926087379455566,26.94919204711914,3.2959320545196533
11178.0,10871.0,12385.0,10257.0,47.0,48.0,47.0,47.0,10.420000076293945,11.050000190734863,11.670000076293945,11.119999885559082,0.67957603931427,-25.012001037597656,,-0.5687857000000001,-0.26477954999999886,9.28689755,0.004294490907341242,-0.09323453158140182,-0.03419109061360358,26.21,-0.005624464713037014,0.12589648365974426,1.1148130893707275,8.07889175415039,27.220417022705078,3.3017709255218506
11178.0,10871.0,12385.0,10257.0,47.0,48.0,47.0,47.0,10.420000076293945,11.050000190734863,11.670000076293945,11.119999885559082,1.5253050327301025,-26.334447860717773,,-0.5687857000000001,-0.26477954999999886,9.28689755,0.004294490907341242,-0.09323453158140182,-0.03419109061360358,26.21,-0.005624464713037014,0.12589648365974426,1.1148130893707275,8.19404411315918,27.42382049560547,3.301164150238037
11178.0,10871.0,12385.0,10257.0,47.0,48.0,47.0,47.0,10.420000076293945,11.050000190734863,11.670000076293945,11.119999885559082,1.5253050327301025,-26.334447860717773,,-0.5687857000000001,-0.26477954999999886,9.28689755,0.004294490907341242,-0.09323453158140182,-0.03419109061360358,26.38,-0.005624464713037014,0.12589648365974426,1.1148130893707275,8.19404411315918,27.42382049560547,3.301164150238037
11178.0,10871.0,12385.0,10257.0,47.0,48.0,47.0,47.0,10.420000076293945,11.050000190734863,11.670000076293945,11.119999885559082,-0.8157466650009155,-26.113245010375977,,-0.5687857000000001,-0.26477954999999886,9.28689755,0.004294490907341242,-0.09323453158140182,-0.03419109061360358,26.22,-0.005624464713037014,0.12589648365974426,1.1148130893707275,8.345635414123535,27.69057846069336,3.303469181060791
11178.0,10871.0,12385.0,10257.0,47.0,48.0,47.0,47.0,10.420000076293945,11.050000190734863,11.670000076293945,11.119999885559082,-4.776115417480469,-26.086315155029297,,-0.75511205,-0.19613299999999878,9.8654899,0.0773816928267479,0.14236557483673096,0.06756328046321868,26.22,-0.005624464713037014,0.12589648365974426,1.1148130893707275,8.513160705566406,27.987682342529297,3.310640811920166
12657.0,12957.0,10900.0,10436.0,47.0,47.0,48.0,47.0,11.210000038146973,11.210000038146973,10.899999618530273,11.170000076293945,-7.5228352546691895,-26.22276496887207,,-0.75511205,-0.19613299999999878,9.8654899,0.0773816928267479,0.14236557483673096,0.06756328046321868,26.22,-0.005624464713037014,0.12589648365974426,1.1148130893707275,8.513160705566406,27.987682342529297,3.310640811920166
12657.0,12957.0,10900.0,10436.0,47.0,47.0,48.0,47.0,11.210000038146973,11.210000038146973,10.899999618530273,11.170000076293945,-7.5228352546691895,-26.22276496887207,,-0.75511205,-0.19613299999999878,9.8654899,0.0773816928267479,0.14236557483673096,0.06756328046321868,26.14,-0.005624464713037014,0.12589648365974426,1.1148130893707275,8.513160705566406,27.987682342529297,3.310640811920166
12657.0,12957.0,10900.0,10436.0,47.0,47.0,48.0,47.0,11.210000038146973,11.210000038146973,10.899999618530273,11.170000076293945,-6.739932537078857,-26.04487419128418,,-0.75511205,-0.19613299999999878,9.8654899,0.0773816928267479,0.14236557483673096,0.06756328046321868,26.57,-0.02048753947019577,0.08115998655557632,1.11324143409729,8.778417587280273,28.465625762939453,3.333629608154297
12657.0,12957.0,10900.0,10436.0,47.0,47.0,48.0,47.0,11.210000038146973,11.210000038146973,10.899999618530273,11.170000076293945,-6.325386047363281,-25.774560928344727,,-0.75511205,-0.19613299999999878,9.8654899,0.0773816928267479,0.14236557483673096,0.06756328046321868,26.6,-0.02048753947019577,0.08115998655557632,1.11324143409729,8.920620918273926,28.71868324279785,3.3559350967407227
12657.0,12957.0,10900.0,10436.0,47.0,47.0,48.0,47.0,11.210000038146973,11.210000038146973,10.899999618530273,11.170000076293945,-6.325386047363281,-25.774560928344727,,-0.75511205,-0.19613299999999878,9.8654899,0.0773816928267479,0.14236557483673096,0.06756328046321868,26.33,-0.02048753947019577,0.08115998655557632,1.11324143409729,9.035140037536621,28.92711639404297,3.3686697483062744
12657.0,12957.0,10900.0,10436.0,47.0,47.0,48.0,47.0,11.210000038146973,11.210000038146973,10.899999618530273,11.170000076293945,-6.041722297668457,-25.241811752319336,,-0.75511205,-0.19613299999999878,9.8654899,0.0773816928267479,0.14236557483673096,0.06756328046321868,26.33,-0.02048753947019577,0.08115998655557632,1.11324143409729,9.181144714355469,29.188976287841797,3.394162178039551
12657.0,12957.0,10900.0,10436.0,47.0,47.0,48.0,47.0,11.210000038146973,11.210000038146973,10.899999618530273,11.170000076293945,-6.696932315826416,-24.922313690185547,,-0.75511205,-0.19613299999999878,9.8654899,0.0773816928267479,0.14236557483673096,0.06756328046321868,26.14,-0.02048753947019577,0.08115998655557632,1.11324143409729,9.181144714355469,29.188976287841797,3.394162178039551
12657.0,12957.0,10900.0,10436.0,47.0,47.0,48.0,47.0,11.210000038146973,11.210000038146973,10.899999618530273,11.170000076293945,-5.200217247009277,-28.075300216674805,,-0.71588545,-0.4020726499999988,9.71839015,-0.09661396592855453,0.16970551013946533,0.023686686530709246,26.14,-0.02048753947019577,0.08115998655557632,1.11324143409729,9.348179817199707,29.489116668701172,3.423954725265503
12657.0,12957.0,10900.0,10436.0,47.0,47.0,48.0,47.0,11.210000038146973,11.210000038146973,10.899999618530273,11.170000076293945,-6.295628547668457,-28.228240966796875,,-0.71588545,-0.4020726499999988,9.71839015,-0.09661396592855453,0.16970551013946533,0.023686686530709246,26.15,-0.02048753947019577,0.08115998655557632,1.11324143409729,9.348179817199707,29.489116668701172,3.423954725265503
12657.0,12957.0,10900.0,10436.0,47.0,47.0,48.0,47.0,11.210000038146973,11.210000038146973,10.899999618530273,11.170000076293945,-6.295628547668457,-28.228240966796875,,-0.71588545,-0.4020726499999988,9.71839015,-0.09661396592855453,0.16970551013946533,0.023686686530709246,26.26,0.004793321713805199,0.09963785111904144,1.1145575046539307,9.556852340698242,29.86368751525879,3.460088014602661
12657.0,12957.0,10900.0,10436.0,47.0,47.0,48.0,47.0,11.210000038146973,11.210000038146973,10.899999618530273,11.170000076293945,-7.351080894470215,-26.181453704833984,,-0.71588545,-0.4020726499999988,9.71839015,-0.09661396592855453,0.16970551013946533,0.023686686530709246,26.26,0.004793321713805199,0.09963785111904144,1.1145575046539307,9.69461441040039,30.107187271118164,3.489515781402588
12657.0,12957.0,10900.0,10436.0,47.0,47.0,48.0,47.0,11.210000038146973,11.210000038146973,10.899999618530273,11.170000076293945,-8.477984428405762,-23.66273307800293,,-0.71588545,-0.4020726499999988,9.71839015,-0.09661396592855453,0.16970551013946533,0.023686686530709246,26.75,0.004793321713805199,0.09963785111904144,1.1145575046539307,9.69461441040039,30.107187271118164,3.489515781402588
12657.0,12957.0,10900.0,10436.0,47.0,47.0,48.0,47.0,11.210000038146973,11.210000038146973,10.899999618530273,11.170000076293945,-5.56716775894165,-21.26095962524414,,-0.71588545,-0.4020726499999988,9.71839015,-0.09661396592855453,0.16970551013946533,0.023686686530709246,26.97,0.004793321713805199,0.09963785111904144,1.1145575046539307,9.853628158569336,30.38686752319336,3.5165891647338867
12657.0,12957.0,10900.0,10436.0,47.0,47.0,48.0,47.0,11.210000038146973,11.210000038146973,10.899999618530273,11.170000076293945,-5.39189338684082,-19.853979110717773,,-0.71588545,-0.4020726499999988,9.71839015,-0.09661396592855453,0.16970551013946533,0.023686686530709246,26.97,0.004793321713805199,0.09963785111904144,1.1145575046539307,10.024569511413574,30.685527801513672,3.552216053009033
12657.0,12957.0,10900.0,10436.0,47.0,47.0,48.0,47.0,11.210000038146973,11.210000038146973,10.899999618530273,11.170000076293945,-5.39189338684082,-19.853979110717773,,-0.71588545,-0.4020726499999988,9.71839015,-0.09661396592855453,0.16970551013946533,0.023686686530709246,26.85,0.004793321713805199,0.09963785111904144,1.1145575046539307,10.194190979003906,30.986875534057617,3.5898892879486084
12657.0,12957.0,10900.0,10436.0,47.0,47.0,48.0,47.0,11.210000038146973,11.210000038146973,10.899999618530273,11.170000076293945,-3.0715487003326416,-18.12976837158203,,-0.8433719,-0.3922659999999987,9.9635564,0.13160468637943268,0.11456785351037979,0.026615839451551424,26.85,0.004793321713805199,0.09963785111904144,1.1145575046539307,10.194190979003906,30.986875534057617,3.5898892879486084
11157.0,12380.0,10957.0,11000.0,48.0,49.0,48.0,48.0,11.079999923706055,10.859999656677246,10.949999809265137,11.25,-0.6468199491500854,-18.230567932128906,,-0.8433719,-0.3922659999999987,9.9635564,0.13160468637943268,0.11456785351037979,0.026615839451551424,26.79,0.004793321713805199,0.09963785111904144,1.1145575046539307,10.194190979003906,30.986875534057617,3.5898892879486084
11157.0,12380.0,10957.0,11000.0,48.0,49.0,48.0,48.0,11.079999923706055,10.859999656677246,10.949999809265137,11.25,0.1574109047651291,-19.54290771484375,,-0.8433719,-0.3922659999999987,9.9635564,0.13160468637943268,0.11456785351037979,0.026615839451551424,27.16,-0.02374635636806488,0.10127487033605576,1.1020907163619995,10.400993347167969,31.36100196838379,3.6415724754333496
11157.0,12380.0,10957.0,11000.0,48.0,49.0,48.0,48.0,11.079999923706055,10.859999656677246,10.949999809265137,11.25,-0.6872330904006958,-17.632577896118164,,-0.8433719,-0.3922659999999987,9.9635564,0.13160468637943268,0.11456785351037979,0.026615839451551424,27.13,-0.02374635636806488,0.10127487033605576,1.1020907163619995,10.533329963684082,31.59808921813965,3.6772007942199707
11157.0,12380.0,10957.0,11000.0,48.0,49.0,48.0,48.0,11.079999923706055,10.859999656677246,10.949999809265137,11.25,-0.6073054075241089,-16.418045043945312,,-0.8433719,-0.3922659999999987,9.9635564,0.13160468637943268,0.11456785351037979,0.026615839451551424,27.13,-0.02374635636806488,0.10127487033605576,1.1020907163619995,10.703304290771484,31.9027042388916,3.7199013233184814
11157.0,12380.0,10957.0,11000.0,48.0,49.0,48.0,48.0,11.079999923706055,10.859999656677246,10.949999809265137,11.25,-0.6073054075241089,-16.418045043945312,,-0.8433719,-0.3922659999999987,9.9635564,0.13160468637943268,0.11456785351037979,0.026615839451551424,26.83,-0.02374635636806488,0.10127487033605576,1.1020907163619995,10.703304290771484,31.9027042388916,3.7199013233184814
11157.0,12380.0,10957.0,11000.0,48.0,49.0,48.0,48.0,11.079999923706055,10.859999656677246,10.949999809265137,11.25,-0.4501268267631531,-14.457608222961426,,-0.8433719,-0.3922659999999987,9.9635564,0.13160468637943268,0.11456785351037979,0.026615839451551424,26.99,-0.02374635636806488,0.10127487033605576,1.1020907163619995,10.876243591308594,32.2103157043457,3.770327091217041
11157.0,12380.0,10957.0,11000.0,48.0,49.0,48.0,48.0,11.079999923706055,10.859999656677246,10.949999809265137,11.25,-0.7624775767326355,-15.396015167236328,,-0.8433719,-0.3922659999999987,9.9635564,0.13160468637943268,0.11456785351037979,0.026615839451551424,26.99,-0.02374635636806488,0.10127487033605576,1.1020907163619995,11.048003196716309,32.515769958496094,3.820612907409668
11157.0,12380.0,10957.0,11000.0,48.0,49.0,48.0,48.0,11.079999923706055,10.859999656677246,10.949999809265137,11.25,-0.7624775767326355,-15.396015167236328,,-0.75511205,-0.4314925999999987,10.2185293,-0.07268692553043365,-0.25290748476982117,-0.08152745664119718,26.99,-0.02374635636806488,0.10127487033605576,1.1020907163619995,11.048003196716309,32.515769958496094,3.820612907409668
11157.0,12380.0,10957.0,11000.0,48.0,49.0,48.0,48.0,11.079999923706055,10.859999656677246,10.949999809265137,11.25,0.10926013439893723,-17.80003547668457,,-0.75511205,-0.4314925999999987,10.2185293,-0.07268692553043365,-0.25290748476982117,-0.08152745664119718,27.29,-0.02374635636806488,0.10127487033605576,1.1020907163619995,11.048003196716309,32.515769958496094,3.820612907409668
11157.0,12380.0,10957.0,11000.0,48.0,49.0,48.0,48.0,11.079999923706055,10.859999656677246,10.949999809265137,11.25,1.5677744150161743,-22.30919075012207,,-0.75511205,-0.4314925999999987,10.2185293,-0.07268692553043365,-0.25290748476982117,-0.08152745664119718,27.15,-0.015418297611176968,0.0716598853468895,1.0993415117263794,11.253684043884277,32.88094711303711,3.88859486579895
11157.0,12380.0,10957.0,11000.0,48.0,49.0,48.0,48.0,11.079999923706055,10.859999656677246,10.949999809265137,11.25,0.45272859930992126,-20.78557777404785,,-0.75511205,-0.4314925999999987,10.2185293,-0.07268692553043365,-0.25290748476982117,-0.08152745664119718,27.15,-0.015418297611176968,0.0716598853468895,1.0993415117263794,11.397939682006836,33.137115478515625,3.940552234649658
11157.0,12380.0,10957.0,11000.0,48.0,49.0,48.0,48.0,11.079999923706055,10.859999656677246,10.949999809265137,11.25,0.4773629307746887,-22.513639450073242,,-0.75511205,-0.4314925999999987,10.2185293,-0.07268692553043365,-0.25290748476982117,-0.08152745664119718,26.93,-0.015418297611176968,0.0716598853468895,1.0993415117263794,11.397939682006836,33.137115478515625,3.940552234649658
11157.0,12380.0,10957.0,11000.0,48.0,49.0,48.0,48.0,11.079999923706055,10.859999656677246,10.949999809265137,11.25,0.8962129354476929,-22.428287506103516,,-0.75511205,-0.4314925999999987,10.2185293,-0.07268692553043365,-0.25290748476982117,-0.08152745664119718,27.1,-0.015418297611176968,0.0716598853468895,1.0993415117263794,11.597917556762695,33.49812316894531,4.020012855529785
11157.0,12380.0,10957.0,11000.0,48.0,49.0,48.0,48.0,11.079999923706055,10.859999656677246,10.949999809265137,11.25,2.1131324768066406,-23.848363876342773,,-0.75511205,-0.4314925999999987,10.2185293,-0.07268692553043365,-0.25290748476982117,-0.08152745664119718,27.26,-0.015418297611176968,0.0716598853468895,1.0993415117263794,11.730530738830566,33.73685836791992,4.076163291931152
11157.0,12380.0,10957.0,11000.0,48.0,49.0,48.0,48.0,11.079999923706055,10.859999656677246,10.949999809265137,11.25,-1.776684045791626,-25.9550838470459,,-0.7256921000000001,-0.3236194499999988,9.7674234,-0.05105406790971756,0.07611824572086334,0.02349005639553069,27.26,-0.015418297611176968,0.0716598853468895,1.0993415117263794,11.898106575012207,34.041744232177734,4.146650791168213
12528.0,11157.0,11128.0,12499.0,47.0,48.0,48.0,48.0,11.210000038146973,10.979999542236328,11.0600004196167,11.0600004196167,-1.776684045791626,-25.9550838470459,,-0.7256921000000001,-0.3236194499999988,9.7674234,-0.05105406790971756,0.07611824572086334,0.02349005639553069,27.1,-0.015418297611176968,0.0716598853468895,1.0993415117263794,11.898106575012207,34.041744232177734,4.146650791168213
12528.0,11157.0,11128.0,12499.0,47.0,48.0,48.0,48.0,11.210000038146973,10.979999542236328,11.0600004196167,11.0600004196167,-1.2793036699295044,-22.736677169799805,,-0.7256921000000001,-0.3236194499999988,9.7674234,-0.05105406790971756,0.07611824572086334,0.02349005639553069,27.1,-0.03129683434963226,0.07895828783512115,1.0949021577835083,12.084477424621582,34.38875961303711,4.22652530670166
12528.0,11157.0,11128.0,12499.0,47.0,48.0,48.0,48.0,11.210000038146973,10.979999542236328,11.0600004196167,11.0600004196167,-1.8321224451065063,-28.052438735961914,,-0.7256921000000001,-0.3236194499999988,9.7674234,-0.05105406790971756,0.07611824572086334,0.02349005639553069,27.35,-0.03129683434963226,0.07895828783512115,1.0949021577835083,12.084477424621582,34.38875961303711,4.22652530670166
12528.0,11157.0,11128.0,12499.0,47.0,48.0,48.0,48.0,11.210000038146973,10.979999542236328,11.0600004196167,11.0600004196167,-1.8321224451065063,-28.052438735961914,,-0.7256921000000001,-0.3236194499999988,9.7674234,-0.05105406790971756,0.07611824572086334,0.02349005639553069,27.76,-0.03129683434963226,0.07895828783512115,1.0949021577835083,12.28982925415039,34.765846252441406,4.3217573165893555
12528.0,11157.0,11128.0,12499.0,47.0,48.0,48.0,48.0,11.210000038146973,10.979999542236328,11.0600004196167,11.0600004196167,-0.9951245784759521,-27.616952896118164,,-0.7256921000000001,-0.3236194499999988,9.7674234,-0.05105406790971756,0.07611824572086334,0.02349005639553069,27.59,-0.03129683434963226,0.07895828783512115,1.0949021577835083,12.40544605255127,34.97636795043945,4.379190444946289
12528.0,11157.0,11128.0,12499.0,47.0,48.0,48.0,48.0,11.210000038146973,10.979999542236328,11.0600004196167,11.0600004196167,-1.1676820516586304,-26.18099594116211,,-0.7256921000000001,-0.3236194499999988,9.7674234,-0.05105406790971756,0.07611824572086334,0.02349005639553069,27.59,-0.03129683434963226,0.07895828783512115,1.0949021577835083,12.567059516906738,35.270782470703125,4.462815284729004
12528.0,11157.0,11128.0,12499.0,47.0,48.0,48.0,48.0,11.210000038146973,10.979999542236328,11.0600004196167,11.0600004196167,-1.4748271703720093,-25.989336013793945,,-0.7256921000000001,-0.3236194499999988,9.7674234,-0.05105406790971756,0.07611824572086334,0.02349005639553069,27.44,-0.03129683434963226,0.07895828783512115,1.0949021577835083,12.732270240783691,35.580474853515625,4.550384521484375
12528.0,11157.0,11128.0,12499.0,47.0,48.0,48.0,48.0,11.210000038146973,10.979999542236328,11.0600004196167,11.0600004196167,-5.454037666320801,-24.414350509643555,,-0.7649187,-0.29419949999999884,9.77723005,-0.17388339340686798,0.08257771283388138,0.02223670482635497,27.44,-0.03129683434963226,0.07895828783512115,1.0949021577835083,12.732270240783691,35.580474853515625,4.550384521484375
12614.0,12628.0,11083.0,12414.0,47.0,48.0,48.0,48.0,10.319999694824219,11.170000076293945,10.199999809265137,11.15999984741211,-5.454037666320801,-24.414350509643555,,-0.7649187,-0.29419949999999884,9.77723005,-0.17388339340686798,0.08257771283388138,0.02223670482635497,27.44,-0.03129683434963226,0.07895828783512115,1.0949021577835083,12.732270240783691,35.580474853515625,4.550384521484375
12614.0,12628.0,11083.0,12414.0,47.0,48.0,48.0,48.0,10.319999694824219,11.170000076293945,10.199999809265137,11.15999984741211,-4.37789249420166,-21.564159393310547,,-0.7649187,-0.29419949999999884,9.77723005,-0.17388339340686798,0.08257771283388138,0.02223670482635497,27.22,-0.03129683434963226,0.07895828783512115,1.0949021577835083,12.732270240783691,35.580474853515625,4.550384521484375
12614.0,12628.0,11083.0,12414.0,47.0,48.0,48.0,48.0,10.319999694824219,11.170000076293945,10.199999809265137,11.15999984741211,-0.513273298740387,-19.59026336669922,,-0.7649187,-0.29419949999999884,9.77723005,-0.17388339340686798,0.08257771283388138,0.02223670482635497,26.82,-0.08434203267097473,0.09958121925592422,1.0918667316436768,13.005661010742188,36.11958694458008,4.713571071624756
12614.0,12628.0,11083.0,12414.0,47.0,48.0,48.0,48.0,10.319999694824219,11.170000076293945,10.199999809265137,11.15999984741211,-0.513273298740387,-19.59026336669922,,-0.7649187,-0.29419949999999884,9.77723005,-0.17388339340686798,0.08257771283388138,0.02223670482635497,26.97,-0.08434203267097473,0.09958121925592422,1.0918667316436768,13.113489151000977,36.34162139892578,4.776331424713135
12614.0,12628.0,11083.0,12414.0,47.0,48.0,48.0,48.0,10.319999694824219,11.170000076293945,10.199999809265137,11.15999984741211,0.7965853214263916,-17.221450805664062,,-0.7649187,-0.29419949999999884,9.77723005,-0.17388339340686798,0.08257771283388138,0.02223670482635497,27.01,-0.08434203267097473,0.09958121925592422,1.0918667316436768,13.238097190856934,36.6087760925293,4.852349758148193
12614.0,12628.0,11083.0,12414.0,47.0,48.0,48.0,48.0,10.319999694824219,11.170000076293945,10.199999809265137,11.15999984741211,1.8979792594909668,-17.20304298400879,,-0.7649187,-0.29419949999999884,9.77723005,-0.17388339340686798,0.08257771283388138,0.02223670482635497,27.04,-0.08434203267097473,0.09958121925592422,1.0918667316436768,13.361631393432617,36.87689971923828,4.931129455566406
12614.0,12628.0,11083.0,12414.0,47.0,48.0,48.0,48.0,10.319999694824219,11.170000076293945,10.199999809265137,11.15999984741211,1.8979792594909668,-17.20304298400879,,-0.7649187,-0.29419949999999884,9.77723005,-0.17388339340686798,0.08257771283388138,0.02223670482635497,27.04,-0.08434203267097473,0.09958121925592422,1.0918667316436768,13.508064270019531,37.21775817871094,5.025653839111328
12614.0,12628.0,11083.0,12414.0,47.0,48.0,48.0,48.0,10.319999694824219,11.170000076293945,10.199999809265137,11.15999984741211,0.8644062876701355,-16.390087127685547,,-0.7649187,-0.29419949999999884,9.77723005,-0.17388339340686798,0.08257771283388138,0.02223670482635497,27.04,-0.08434203267097473,0.09958121925592422,1.0918667316436768,13.508064270019531,37.21775817871094,5.025653839111328
11000.0,12628.0,12542.0,11100.0,47.0,48.0,48.0,48.0,10.319999694824219,11.170000076293945,10.199999809265137,11.15999984741211,-2.7700586318969727,-19.612728118896484,,-0.79433865,-0.31381279999999884,9.6301303,0.006149671971797943,-0.014191932976245877,0.03518974408507347,26.95,-0.08434203267097473,0.09958121925592422,1.0918667316436768,13.508064270019531,37.21775817871094,5.025653839111328
11000.0,12628.0,12542.0,11100.0,48.0,48.0,48.0,48.0,10.989999771118164,10.640000343322754,11.199999809265137,11.029999732971191,-1.032610297203064,-20.614391326904297,,-0.79433865,-0.31381279999999884,9.6301303,0.006149671971797943,-0.014191932976245877,0.03518974408507347,26.95,-0.11972984671592712,0.10088978707790375,1.0989981889724731,13.72856330871582,37.75773620605469,5.184117794036865
11000.0,12628.0,12542.0,11100.0,48.0,48.0,48.0,48.0,10.989999771118164,10.640000343322754,11.199999809265137,11.029999732971191,0.6967682838439941,-18.46251678466797,,-0.79433865,-0.31381279999999884,9.6301303,0.006149671971797943,-0.014191932976245877,0.03518974408507347,26.78,-0.11972984671592712,0.10088978707790375,1.0989981889724731,13.82397747039795,37.994224548339844,5.256810188293457
11000.0,12628.0,12542.0,11100.0,48.0,48.0,48.0,48.0,10.989999771118164,10.640000343322754,11.199999809265137,11.029999732971191,0.9895952939987183,-17.83787727355957,,-0.79433865,-0.31381279999999884,9.6301303,0.006149671971797943,-0.014191932976245877,0.03518974408507347,26.78,-0.11972984671592712,0.10088978707790375,1.0989981889724731,13.82397747039795,37.994224548339844,5.256810188293457
11000.0,12628.0,12542.0,11100.0,48.0,48.0,48.0,48.0,10.989999771118164,10.640000343322754,11.199999809265137,11.029999732971191,0.6776536703109741,-17.310501098632812,,-0.79433865,-0.31381279999999884,9.6301303,0.006149671971797943,-0.014191932976245877,0.03518974408507347,26.7,-0.11972984671592712,0.10088978707790375,1.0989981889724731,13.925190925598145,38.26891326904297,5.334354400634766
11000.0,12628.0,12542.0,11100.0,48.0,48.0,48.0,48.0,10.989999771118164,10.640000343322754,11.199999809265137,11.029999732971191,0.6776536703109741,-17.310501098632812,,-0.79433865,-0.31381279999999884,9.6301303,0.006149671971797943,-0.014191932976245877,0.03518974408507347,26.7,-0.11972984671592712,0.10088978707790375,1.0989981889724731,14.048736572265625,38.600440979003906,5.433382511138916
11000.0,12628.0,12542.0,11100.0,48.0,48.0,48.0,48.0,10.989999771118164,10.640000343322754,11.199999809265137,11.029999732971191,-0.0795016810297966,-16.840272903442383,,-0.79433865,-0.31381279999999884,9.6301303,0.006149671971797943,-0.014191932976245877,0.03518974408507347,26.93,-0.11972984671592712,0.10088978707790375,1.0989981889724731,14.048736572265625,38.600440979003906,5.433382511138916
11000.0,12628.0,12542.0,11100.0,48.0,48.0,48.0,48.0,10.989999771118164,10.640000343322754,11.199999809265137,11.029999732971191,-5.663867473602295,-14.736590385437012,,-0.91201845,-0.4707191999999987,10.13026945,-0.0027453135699033737,-0.19083115458488464,-0.021409830078482604,26.93,-0.11972984671592712,0.10088978707790375,1.0989981889724731,14.176039695739746,38.942176818847656,5.535800457000732
11000.0,12628.0,12542.0,11100.0,48.0,48.0,48.0,48.0,10.989999771118164,10.640000343322754,11.199999809265137,11.029999732971191,-6.288106441497803,-21.054866790771484,,-0.91201845,-0.4707191999999987,10.13026945,-0.0027453135699033737,-0.19083115458488464,-0.021409830078482604,26.94,-0.11972984671592712,0.10088978707790375,1.0989981889724731,14.176039695739746,38.942176818847656,5.535800457000732
11000.0,12628.0,12542.0,11100.0,48.0,48.0,48.0,48.0,10.989999771118164,10.640000343322754,11.199999809265137,11.029999732971191,-5.971190452575684,-19.988935470581055,,-0.91201845,-0.4707191999999987,10.13026945,-0.0027453135699033737,-0.19083115458488464,-0.021409830078482604,27.23,-0.007268655113875866,-0.0021481062285602093,1.1006019115447998,14.358829498291016,39.42437744140625,5.696341037750244
11000.0,12628.0,12542.0,11100.0,48.0,48.0,48.0,48.0,10.989999771118164,10.640000343322754,11.199999809265137,11.029999732971191,-5.971190452575684,-19.988935470581055,,-0.91201845,-0.4707191999999987,10.13026945,-0.0027453135699033737,-0.19083115458488464,-0.021409830078482604,27.05,-0.007268655113875866,-0.0021481062285602093,1.1006019115447998,14.467144012451172,39.699764251708984,5.801978588104248
11000.0,12628.0,12542.0,11100.0,48.0,48.0,48.0,48.0,10.989999771118164,10.640000343322754,11.199999809265137,11.029999732971191,-6.685567378997803,-24.32063865661621,,-0.91201845,-0.4707191999999987,10.13026945,-0.0027453135699033737,-0.19083115458488464,-0.021409830078482604,27.05,-0.007268655113875866,-0.0021481062285602093,1.1006019115447998,14.556570053100586,39.926307678222656,5.892157077789307
11000.0,12628.0,12542.0,11100.0,48.0,48.0,48.0,48.0,10.989999771118164,10.640000343322754,11.199999809265137,11.029999732971191,-4.983376502990723,-24.31497573852539,,-0.91201845,-0.4707191999999987,10.13026945,-0.0027453135699033737,-0.19083115458488464,-0.021409830078482604,27.07,-0.007268655113875866,-0.0021481062285602093,1.1006019115447998,14.556570053100586,39.926307678222656,5.892157077789307
11000.0,12628.0,12542.0,11100.0,48.0,48.0,48.0,48.0,10.989999771118164,10.640000343322754,11.199999809265137,11.029999732971191,-5.294618606567383,-23.21579360961914,,-0.91201845,-0.4707191999999987,10.13026945,-0.0027453135699033737,-0.19083115458488464,-0.021409830078482604,27.05,-0.007268655113875866,-0.0021481062285602093,1.1006019115447998,14.702324867248535,40.285369873046875,6.056822299957275
11000.0,12628.0,12542.0,11100.0,48.0,48.0,48.0,48.0,10.989999771118164,10.640000343322754,11.199999809265137,11.029999732971191,-3.8403265476226807,-21.951887130737305,,-0.91201845,-0.4707191999999987,10.13026945,-0.0027453135699033737,-0.19083115458488464,-0.021409830078482604,27.05,-0.007268655113875866,-0.0021481062285602093,1.1006019115447998,14.806940078735352,40.54277420043945,6.180610656738281
11000.0,12628.0,12542.0,11100.0,48.0,48.0,48.0,48.0,10.989999771118164,10.640000343322754,11.199999809265137,11.029999732971191,-1.5862466096878052,-19.91822624206543,,-0.784532,-0.3824593499999987,10.8657682,-0.10254286974668503,0.03313984349370003,-0.02710456028580666,27.05,-0.007268655113875866,-0.0021481062285602093,1.1006019115447998,14.806940078735352,40.54277420043945,6.180610656738281
11548.0,13341.0,13328.0,13285.0,48.0,48.0,48.0,48.0,10.979999542236328,11.100000381469727,10.75,11.029999732971191,-1.3868345022201538,-16.993907928466797,,-0.784532,-0.3824593499999987,10.8657682,-0.10254286974668503,0.03313984349370003,-0.02710456028580666,26.97,-0.007268655113875866,-0.0021481062285602093,1.1006019115447998,14.806940078735352,40.54277420043945,6.180610656738281
11548.0,13341.0,13328.0,13285.0,48.0,48.0,48.0,48.0,10.979999542236328,11.100000381469727,10.75,11.029999732971191,-1.2638379335403442,-15.428409576416016,,-0.784532,-0.3824593499999987,10.8657682,-0.10254286974668503,0.03313984349370003,-0.02710456028580666,26.98,-0.007623792625963688,-0.004904158413410187,1.098496437072754,14.980026245117188,40.96860885620117,6.408648490905762
11548.0,13341.0,13328.0,13285.0,48.0,48.0,48.0,48.0,10.979999542236328,11.100000381469727,10.75,11.029999732971191,-1.056353211402893,-14.04987907409668,,-0.784532,-0.3824593499999987,10.8657682,-0.10254286974668503,0.03313984349370003,-0.02710456028580666,26.98,-0.007623792625963688,-0.004904158413410187,1.098496437072754,15.06273078918457,41.1693229675293,6.522560119628906
11548.0,13341.0,13328.0,13285.0,48.0,48.0,48.0,48.0,10.979999542236328,11.100000381469727,10.75,11.029999732971191,-0.7825828790664673,-12.733546257019043,,-0.784532,-0.3824593499999987,10.8657682,-0.10254286974668503,0.03313984349370003,-0.02710456028580666,27.14,-0.007623792625963688,-0.004904158413410187,1.098496437072754,15.06273078918457,41.1693229675293,6.522560119628906
11548.0,13341.0,13328.0,13285.0,48.0,48.0,48.0,48.0,10.979999542236328,11.100000381469727,10.75,11.029999732971191,0.2967369258403778,-12.914405822753906,,-0.784532,-0.3824593499999987,10.8657682,-0.10254286974668503,0.03313984349370003,-0.02710456028580666,27.02,-0.007623792625963688,-0.004904158413410187,1.098496437072754,15.195234298706055,41.4995231628418,6.711631774902344
11548.0,13341.0,13328.0,13285.0,48.0,48.0,48.0,48.0,10.979999542236328,11.100000381469727,10.75,11.029999732971191,0.6518426537513733,-11.545823097229004,,-0.784532,-0.3824593499999987,10.8657682,-0.10254286974668503,0.03313984349370003,-0.02710456028580666,25.96,-0.007623792625963688,-0.004904158413410187,1.098496437072754,15.28038501739502,41.72029495239258,6.840097427368164
11548.0,13341.0,13328.0,13285.0,48.0,48.0,48.0,48.0,10.979999542236328,11.100000381469727,10.75,11.029999732971191,0.32449451088905334,-9.85277271270752,,-0.6276256,-0.28439284999999875,10.267562550000001,-0.0902147963643074,0.10654271394014363,0.3550425171852112,25.96,-0.007623792625963688,-0.004904158413410187,1.098496437072754,15.38674545288086,42.01974105834961,7.009279727935791
12671.0,12614.0,12942.0,12842.0,48.0,48.0,48.0,48.0,10.979999542236328,11.100000381469727,10.75,11.029999732971191,2.158766984939575,-10.476619720458984,,-0.6276256,-0.28439284999999875,10.267562550000001,-0.0902147963643074,0.10654271394014363,0.3550425171852112,25.96,-0.007623792625963688,-0.004904158413410187,1.098496437072754,15.38674545288086,42.01974105834961,7.009279727935791
12671.0,12614.0,12942.0,12842.0,50.0,48.0,48.0,48.0,10.880000114440918,10.90999984741211,11.130000114440918,11.069999694824219,1.709848165512085,-9.850017547607422,,-0.6276256,-0.28439284999999875,10.267562550000001,-0.0902147963643074,0.10654271394014363,0.3550425171852112,23.91,-0.007623792625963688,-0.004904158413410187,1.098496437072754,15.38674545288086,42.01974105834961,7.009279727935791
12671.0,12614.0,12942.0,12842.0,50.0,48.0,48.0,48.0,10.880000114440918,10.90999984741211,11.130000114440918,11.069999694824219,1.5437283515930176,-10.10763168334961,,-0.6276256,-0.28439284999999875,10.267562550000001,-0.0902147963643074,0.10654271394014363,0.3550425171852112,21.54,-0.15159395337104797,0.09673482924699783,1.1184360980987549,15.519471168518066,42.442909240722656,7.254315376281738
12671.0,12614.0,12942.0,12842.0,50.0,48.0,48.0,48.0,10.880000114440918,10.90999984741211,11.130000114440918,11.069999694824219,3.7021288871765137,-8.421682357788086,,-0.6276256,-0.28439284999999875,10.267562550000001,-0.0902147963643074,0.10654271394014363,0.3550425171852112,18.9,-0.15159395337104797,0.09673482924699783,1.1184360980987549,15.618372917175293,42.801239013671875,7.447834491729736
12671.0,12614.0,12942.0,12842.0,50.0,48.0,48.0,48.0,10.880000114440918,10.90999984741211,11.130000114440918,11.069999694824219,3.161238431930542,-7.511895179748535,,-0.6276256,-0.28439284999999875,10.267562550000001,-0.0902147963643074,0.10654271394014363,0.3550425171852112,18.9,-0.15159395337104797,0.09673482924699783,1.1184360980987549,15.618372917175293,42.801239013671875,7.447834491729736
12671.0,12614.0,12942.0,12842.0,50.0,48.0,48.0,48.0,10.880000114440918,10.90999984741211,11.130000114440918,11.069999694824219,2.650324583053589,-9.210062026977539,,-0.6276256,-0.28439284999999875,10.267562550000001,-0.0902147963643074,0.10654271394014363,0.3550425171852112,15.81,-0.15159395337104797,0.09673482924699783,1.1184360980987549,15.674592018127441,43.0273323059082,7.56923770904541
12671.0,12614.0,12942.0,12842.0,50.0,48.0,48.0,48.0,10.880000114440918,10.90999984741211,11.130000114440918,11.069999694824219,2.3765852451324463,-8.187880516052246,,-0.6276256,-0.28439284999999875,10.267562550000001,-0.0902147963643074,0.10654271394014363,0.3550425171852112,12.03,-0.15159395337104797,0.09673482924699783,1.1184360980987549,15.735590934753418,43.298744201660156,7.712732791900635
12671.0,12614.0,12942.0,12842.0,50.0,48.0,48.0,48.0,10.880000114440918,10.90999984741211,11.130000114440918,11.069999694824219,2.3765852451324463,-8.187880516052246,,-0.75511205,-0.1470997499999988,9.639936950000001,-0.26600921154022217,-0.23683317005634297,0.8434293866157532,12.03,-0.15159395337104797,0.09673482924699783,1.1184360980987549,15.799132347106934,43.64079284667969,7.882166862487793
